stair.thisTrialN,stair.stepSize,stair.intensity,thisRow.t,notes,trial.started,fixation.started,fixation.stopped,grating.started,key_resp.started,grating.stopped,trial.stopped,corrAns,tilt,key_resp.corr,stair.response,key_resp.rt,Thank.started,text.started,text.stopped,Thank.stopped,participant,session,date,expName,expVersion,psychopyVersion,frameRate,expStart,
0,2,10.0,0.022261800011619925,,0.005847699998412281,0.022261800011619925,0.532140299997991,0.532140299997991,0.532140299997991,0.8403863999992609,12.633446099993307,right,10.0,0,0,12.069181800005026,,,,,527906,001,2025-09-04_09h56.11.577,Experiment,,2025.1.1,60.32771220391816,2025-09-04 09h56.12.965147 +0530,
1,1,12.0,12.637632199999643,,12.633627700008219,12.637632199999643,13.139625799987698,13.139625799987698,13.139625799987698,13.439081699994858,13.623830800002906,left,-12.0,1,1,0.47790830000303686,,,,,527906,001,2025-09-04_09h56.11.577,Experiment,,2025.1.1,60.32771220391816,2025-09-04 09h56.12.965147 +0530,
2,1,11.0,13.639546199992765,,13.624090299999807,13.639546199992765,14.122892699990189,14.122892699990189,14.122892699990189,14.422890399990138,14.539847800013376,left,-11.0,1,1,0.4010355999926105,,,,,527906,001,2025-09-04_09h56.11.577,Experiment,,2025.1.1,60.32771220391816,2025-09-04 09h56.12.965147 +0530,
3,1,11.0,14.556066499993904,,14.540091900009429,14.556066499993904,15.039375799999107,15.039375799999107,15.039375799999107,15.339446199999657,15.439747900003567,left,-11.0,1,1,0.39629710000008345,,,,,527906,001,2025-09-04_09h56.11.577,Experiment,,2025.1.1,60.32771220391816,2025-09-04 09h56.12.965147 +0530,
4,1,11.0,15.456278700003168,,15.439996100001736,15.456278700003168,15.939406599994982,15.939406599994982,15.939406599994982,16.23935389998951,16.423007100005634,right,11.0,1,1,0.4706802000000607,,,,,527906,001,2025-09-04_09h56.11.577,Experiment,,2025.1.1,60.32771220391816,2025-09-04 09h56.12.965147 +0530,
5,1,10.0,16.439535899990005,,16.4232772999967,16.439535899990005,16.92285339999944,16.92285339999944,16.92285339999944,17.222549800004344,17.306690800003707,right,10.0,0,0,0.3782282999891322,,,,,527906,001,2025-09-04_09h56.11.577,Experiment,,2025.1.1,60.32771220391816,2025-09-04 09h56.12.965147 +0530,
6,1,11.0,17.322535799990874,,17.30694010001025,17.322535799990874,17.80620409999392,17.80620409999392,17.80620409999392,18.106101399986073,18.323918600013712,left,-11.0,1,1,0.515791599988006,,,,,527906,001,2025-09-04_09h56.11.577,Experiment,,2025.1.1,60.32771220391816,2025-09-04 09h56.12.965147 +0530,
7,1,11.0,18.339218200009782,,18.324160799995298,18.339218200009782,18.83927679999033,18.83927679999033,18.83927679999033,19.139219200005755,19.423375199985458,left,-11.0,1,1,0.5694871000014246,,,,,527906,001,2025-09-04_09h56.11.577,Experiment,,2025.1.1,60.32771220391816,2025-09-04 09h56.12.965147 +0530,
8,0.5,11.0,19.439369100000476,,19.4236271000118,19.439369100000476,19.93888319999678,19.93888319999678,19.93888319999678,20.239453699992737,20.40632770000957,right,11.0,1,1,0.4651150999998208,,,,,527906,001,2025-09-04_09h56.11.577,Experiment,,2025.1.1,60.32771220391816,2025-09-04 09h56.12.965147 +0530,
9,0.5,10.5,20.422673199995188,,20.40661179999006,20.422673199995188,20.905743200011784,20.905743200011784,20.905743200011784,21.205529800005024,21.25629879999906,left,-10.5,1,1,0.33984800000325777,,,,,527906,001,2025-09-04_09h56.11.577,Experiment,,2025.1.1,60.32771220391816,2025-09-04 09h56.12.965147 +0530,
10,0.5,10.5,21.272581099998206,,21.25655319998623,21.272581099998206,21.755933600012213,21.755933600012213,21.755933600012213,22.05568819999462,22.10609340001247,left,-10.5,0,0,0.33495590000529774,,,,,527906,001,2025-09-04_09h56.11.577,Experiment,,2025.1.1,60.32771220391816,2025-09-04 09h56.12.965147 +0530,
11,0.5,11.0,22.122339399997145,,22.106355500000063,22.122339399997145,22.60582379999687,22.60582379999687,22.60582379999687,22.905653499998152,23.17204619999393,right,11.0,1,1,0.5512364000023808,,,,,527906,001,2025-09-04_09h56.11.577,Experiment,,2025.1.1,60.32771220391816,2025-09-04 09h56.12.965147 +0530,
12,0.5,11.0,23.188237399997888,,23.172268800000893,23.188237399997888,23.67244490000303,23.67244490000303,23.67244490000303,23.972294200008037,23.956222899985733,right,11.0,0,0,0.2753292999987025,,,,,527906,001,2025-09-04_09h56.11.577,Experiment,,2025.1.1,60.32771220391816,2025-09-04 09h56.12.965147 +0530,
13,0.5,11.5,23.972294200008037,,23.95644069998525,23.972294200008037,24.45577269999194,24.45577269999194,24.45577269999194,24.755672200000845,24.8394760999945,right,11.5,0,0,0.37838599999668077,,,,,527906,001,2025-09-04_09h56.11.577,Experiment,,2025.1.1,60.32771220391816,2025-09-04 09h56.12.965147 +0530,
14,0.5,12.0,24.85570650000591,,24.839726400008658,24.85570650000591,25.33888090000255,25.33888090000255,25.33888090000255,25.63927089999197,25.855946499999845,right,12.0,1,1,0.5109457000216935,,,,,527906,001,2025-09-04_09h56.11.577,Experiment,,2025.1.1,60.32771220391816,2025-09-04 09h56.12.965147 +0530,
15,0.5,12.0,25.87175640001078,,25.856192600011127,25.87175640001078,26.356032699986827,26.356032699986827,26.356032699986827,26.65516560000833,26.87149719998706,right,12.0,1,1,0.509264099993743,,,,,527906,001,2025-09-04_09h56.11.577,Experiment,,2025.1.1,60.32771220391816,2025-09-04 09h56.12.965147 +0530,
16,0.5,12.0,26.887682000000495,,26.871613499999512,26.887682000000495,27.371959200012498,27.371959200012498,27.371959200012498,27.67025269998703,27.85592520001228,left,-12.0,1,1,0.47525499999755993,,,,,527906,001,2025-09-04_09h56.11.577,Experiment,,2025.1.1,60.32771220391816,2025-09-04 09h56.12.965147 +0530,
17,0.5,11.5,27.87185729999328,,27.856187900004443,27.87185729999328,28.35561400000006,28.35561400000006,28.35561400000006,28.6715045000019,28.741497100010747,right,11.5,1,1,0.38175040000351146,,,,,527906,001,2025-09-04_09h56.11.577,Experiment,,2025.1.1,60.32771220391816,2025-09-04 09h56.12.965147 +0530,
18,0.5,11.5,28.755746999988332,,28.74174110000604,28.755746999988332,29.255529299989576,29.255529299989576,29.255529299989576,29.55521590000717,29.689016999996966,left,-11.5,1,1,0.42816149999271147,,,,,527906,001,2025-09-04_09h56.11.577,Experiment,,2025.1.1,60.32771220391816,2025-09-04 09h56.12.965147 +0530,
19,0.5,11.5,29.705315600003814,,29.68926189999911,29.705315600003814,30.188646900001913,30.188646900001913,30.188646900001913,30.488496500009205,30.606471700011753,right,11.5,1,1,0.41056369998841546,,,,,527906,001,2025-09-04_09h56.11.577,Experiment,,2025.1.1,60.32771220391816,2025-09-04 09h56.12.965147 +0530,
20,0.5,11.0,30.622073300008196,,30.606718900002306,30.622073300008196,31.12172140000621,31.12172140000621,31.12172140000621,31.422973600012483,31.57242640000186,right,11.0,1,1,0.4440926999959629,,,,,527906,001,2025-09-04_09h56.11.577,Experiment,,2025.1.1,60.32771220391816,2025-09-04 09h56.12.965147 +0530,
21,0.5,11.0,31.58855049998965,,31.57267339999089,31.58855049998965,32.07190179999452,32.07190179999452,32.07190179999452,32.37137089998578,32.38807570000063,left,-11.0,1,1,0.3136944000143558,,,,,527906,001,2025-09-04_09h56.11.577,Experiment,,2025.1.1,60.32771220391816,2025-09-04 09h56.12.965147 +0530,
22,0.5,11.0,32.40439479998895,,32.38827619998483,32.40439479998895,32.88845779999974,32.88845779999974,32.88845779999974,33.188213499990525,33.32244409999112,right,11.0,1,1,0.4234221999940928,,,,,527906,001,2025-09-04_09h56.11.577,Experiment,,2025.1.1,60.32771220391816,2025-09-04 09h56.12.965147 +0530,
23,0.5,10.5,33.338526900013676,,33.32270950000384,33.338526900013676,33.82166839999263,33.82166839999263,33.82166839999263,34.12209220000659,34.190028799988795,right,10.5,1,1,0.3661747000005562,,,,,527906,001,2025-09-04_09h56.11.577,Experiment,,2025.1.1,60.32771220391816,2025-09-04 09h56.12.965147 +0530,
24,0.5,10.5,34.20503219999955,,34.19027970000752,34.20503219999955,34.68868610000936,34.68868610000936,34.68868610000936,34.988211999996565,35.08983609999996,right,10.5,0,0,0.39057170000160113,,,,,527906,001,2025-09-04_09h56.11.577,Experiment,,2025.1.1,60.32771220391816,2025-09-04 09h56.12.965147 +0530,
25,0.5,11.0,35.10502990000532,,35.090095499996096,35.10502990000532,35.60494310001377,35.60494310001377,35.60494310001377,35.90436809998937,36.08922319998965,left,-11.0,0,0,0.48005379998357967,,,,,527906,001,2025-09-04_09h56.11.577,Experiment,,2025.1.1,60.32771220391816,2025-09-04 09h56.12.965147 +0530,
26,0.5,11.5,36.105403099994874,,36.089474100008374,36.105403099994874,36.604965700011235,36.604965700011235,36.604965700011235,36.90488119999645,37.78729259999818,right,11.5,1,1,1.1760284999909345,,,,,527906,001,2025-09-04_09h56.11.577,Experiment,,2025.1.1,60.32771220391816,2025-09-04 09h56.12.965147 +0530,
27,0.5,11.5,37.804778399993666,,37.787439000007,37.804778399993666,38.28782960001263,38.28782960001263,38.28782960001263,38.588034199987305,39.072184599994216,right,11.5,1,1,0.7704777999897487,,,,,527906,001,2025-09-04_09h56.11.577,Experiment,,2025.1.1,60.32771220391816,2025-09-04 09h56.12.965147 +0530,
28,0.5,11.5,39.08784699998796,,39.07262349998928,39.08784699998796,39.5885464999883,39.5885464999883,39.5885464999883,39.899302800011355,40.172104400000535,right,11.5,1,1,0.5703986999869812,,,,,527906,001,2025-09-04_09h56.11.577,Experiment,,2025.1.1,60.32771220391816,2025-09-04 09h56.12.965147 +0530,
29,0.5,11.0,40.1880828999856,,40.17237789998762,40.1880828999856,40.67138019998674,40.67138019998674,40.67138019998674,40.97118839999894,41.07193189999089,right,11.0,1,1,0.3982605999917723,,,,,527906,001,2025-09-04_09h56.11.577,Experiment,,2025.1.1,60.32771220391816,2025-09-04 09h56.12.965147 +0530,
30,0.5,11.0,41.087889599992195,,41.072178400005214,41.087889599992195,41.58762020000722,41.58762020000722,41.58762020000722,41.88819520000834,42.07337759999791,left,-11.0,1,1,0.48319810000248253,,,,,527906,001,2025-09-04_09h56.11.577,Experiment,,2025.1.1,60.32771220391816,2025-09-04 09h56.12.965147 +0530,
31,0.5,11.0,42.08819209999638,,42.073621799994726,42.08819209999638,42.587681800010614,42.587681800010614,42.587681800010614,42.88782569998875,43.0367217999883,right,11.0,0,0,0.43881180000607856,,,,,527906,001,2025-09-04_09h56.11.577,Experiment,,2025.1.1,60.32771220391816,2025-09-04 09h56.12.965147 +0530,
32,0.5,11.5,43.05399220000254,,43.0368565999961,43.05399220000254,43.53787450000527,43.53787450000527,43.53787450000527,43.83812249999028,44.00380700000096,left,-11.5,1,1,0.46461269998690113,,,,,527906,001,2025-09-04_09h56.11.577,Experiment,,2025.1.1,60.32771220391816,2025-09-04 09h56.12.965147 +0530,
33,0.5,11.5,44.0204575000098,,44.00401460001012,44.0204575000098,44.50475439999718,44.50475439999718,44.50475439999718,44.80425350001315,44.80476689999341,right,11.5,1,1,0.28938950001611374,,,,,527906,001,2025-09-04_09h56.11.577,Experiment,,2025.1.1,60.32771220391816,2025-09-04 09h56.12.965147 +0530,
34,0.5,11.5,44.82105989998672,,44.805002100009006,44.82105989998672,45.30464159999974,45.30464159999974,45.30464159999974,45.60429079999449,46.07198189999326,left,-11.5,1,1,0.7652495999936946,,,,,527906,001,2025-09-04_09h56.11.577,Experiment,,2025.1.1,60.32771220391816,2025-09-04 09h56.12.965147 +0530,
35,0.5,11.0,46.0874971000012,,46.072234099992784,46.0874971000012,46.57134140000562,46.57134140000562,46.57134140000562,46.870760699996026,47.33816320000915,left,-11.0,1,1,0.7548238000017591,,,,,527906,001,2025-09-04_09h56.11.577,Experiment,,2025.1.1,60.32771220391816,2025-09-04 09h56.12.965147 +0530,
36,0.5,11.0,47.35519589998876,,47.33843750000233,47.35519589998876,47.83772670000326,47.83772670000326,47.83772670000326,48.13758219999727,48.28847530001076,right,11.0,1,1,0.4400272000057157,,,,,527906,001,2025-09-04_09h56.11.577,Experiment,,2025.1.1,60.32771220391816,2025-09-04 09h56.12.965147 +0530,
37,0.5,11.0,48.303916100005154,,48.28871699998854,48.303916100005154,48.78753959998721,48.78753959998721,48.78753959998721,49.08740739998757,49.20298349999939,left,-11.0,1,1,0.4052093999926001,,,,,527906,001,2025-09-04_09h56.11.577,Experiment,,2025.1.1,60.32771220391816,2025-09-04 09h56.12.965147 +0530,
38,0.5,10.5,49.21958710000035,,49.203095700009726,49.21958710000035,49.70456029998604,49.70456029998604,49.70456029998604,50.0043047000072,50.08804929998587,right,10.5,1,1,0.3798843999975361,,,,,527906,001,2025-09-04_09h56.11.577,Experiment,,2025.1.1,60.32771220391816,2025-09-04 09h56.12.965147 +0530,
39,0.5,10.5,50.10398680000799,,50.08829650000553,50.10398680000799,50.58739339999738,50.58739339999738,50.58739339999738,50.887549200007925,51.004589299991494,right,10.5,0,0,0.40755049997824244,,,,,527906,001,2025-09-04_09h56.11.577,Experiment,,2025.1.1,60.32771220391816,2025-09-04 09h56.12.965147 +0530,
40,0.5,11.0,51.02077289999579,,51.00486600000295,51.02077289999579,51.50454940000782,51.50454940000782,51.50454940000782,51.80335549998563,52.02161779999733,left,-11.0,1,1,0.5162312999891583,,,,,527906,001,2025-09-04_09h56.11.577,Experiment,,2025.1.1,60.32771220391816,2025-09-04 09h56.12.965147 +0530,
41,0.5,11.0,52.03737539998838,,52.021882000000915,52.03737539998838,52.53748599998653,52.53748599998653,52.53748599998653,52.8371591999894,53.038278699998045,right,11.0,1,1,0.49945190001744777,,,,,527906,001,2025-09-04_09h56.11.577,Experiment,,2025.1.1,60.32771220391816,2025-09-04 09h56.12.965147 +0530,
42,0.5,11.0,53.053753899992444,,53.038521000009496,53.053753899992444,53.55411810000078,53.55411810000078,53.55411810000078,53.85294780001277,54.08649439999135,right,11.0,1,1,0.523727499996312,,,,,527906,001,2025-09-04_09h56.11.577,Experiment,,2025.1.1,60.32771220391816,2025-09-04 09h56.12.965147 +0530,
43,0.5,10.5,54.103939299995545,,54.08668460001354,54.103939299995545,54.587011800002074,54.587011800002074,54.587011800002074,54.88694500000565,55.120606499986025,left,-10.5,1,1,0.5173292999970727,,,,,527906,001,2025-09-04_09h56.11.577,Experiment,,2025.1.1,60.32771220391816,2025-09-04 09h56.12.965147 +0530,
44,0.5,10.5,55.1372405999864,,55.120852599997306,55.1372405999864,55.62050379998982,55.62050379998982,55.62050379998982,55.91913110000314,56.052637699991465,right,10.5,1,1,0.4190087999741081,,,,,527906,001,2025-09-04_09h56.11.577,Experiment,,2025.1.1,60.32771220391816,2025-09-04 09h56.12.965147 +0530,
45,0.5,10.5,56.069108399999095,,56.0527499000018,56.069108399999095,56.55209599999944,56.55209599999944,56.55209599999944,56.852319700003136,56.985333199991146,left,-10.5,1,1,0.41855760000180453,,,,,527906,001,2025-09-04_09h56.11.577,Experiment,,2025.1.1,60.32771220391816,2025-09-04 09h56.12.965147 +0530,
46,0.5,10.0,57.001791299990145,,56.98547350001172,57.001791299990145,57.486270699999295,57.486270699999295,57.486270699999295,57.786800000001676,57.90442659999826,right,10.0,1,1,0.4059986000065692,,,,,527906,001,2025-09-04_09h56.11.577,Experiment,,2025.1.1,60.32771220391816,2025-09-04 09h56.12.965147 +0530,
47,0.5,10.0,57.91991160000907,,57.90470730001107,57.91991160000907,58.42034529999364,58.42034529999364,58.42034529999364,,58.70249480000348,left,-10.0,1,1,0.2773779999988619,,,,,527906,001,2025-09-04_09h56.11.577,Experiment,,2025.1.1,60.32771220391816,2025-09-04 09h56.12.965147 +0530,
48,0.5,10.0,58.71884310001042,,58.702633999986574,58.71884310001042,59.20292680000421,59.20292680000421,59.20292680000421,59.50377270000172,59.587476799992146,right,10.0,1,1,0.3766030000115279,,,,,527906,001,2025-09-04_09h56.11.577,Experiment,,2025.1.1,60.32771220391816,2025-09-04 09h56.12.965147 +0530,
49,0.5,9.5,59.603310500009684,,59.58781379999709,59.603310500009684,60.08678849998978,60.08678849998978,60.08678849998978,60.38665599998785,60.40397899999516,right,9.5,0,0,0.30360160002601333,,,,,527906,001,2025-09-04_09h56.11.577,Experiment,,2025.1.1,60.32771220391816,2025-09-04 09h56.12.965147 +0530,
50,0.5,10.0,60.420011100010015,,60.40425079999841,60.420011100010015,60.90357439999934,60.90357439999934,60.90357439999934,61.204005900013726,61.403918399999384,right,10.0,1,1,0.49236410000594333,,,,,527906,001,2025-09-04_09h56.11.577,Experiment,,2025.1.1,60.32771220391816,2025-09-04 09h56.12.965147 +0530,
51,0.5,10.0,61.41984499999671,,61.40418549999595,61.41984499999671,61.903419799986295,61.903419799986295,61.903419799986295,62.20408570001018,62.32072859999607,right,10.0,1,1,0.4039850999834016,,,,,527906,001,2025-09-04_09h56.11.577,Experiment,,2025.1.1,60.32771220391816,2025-09-04 09h56.12.965147 +0530,
52,0.5,10.0,62.33649889999651,,62.320965299993986,62.33649889999651,62.82004610000877,62.82004610000877,62.82004610000877,63.11984689999372,63.270720600005006,left,-10.0,1,1,0.4432866999995895,,,,,527906,001,2025-09-04_09h56.11.577,Experiment,,2025.1.1,60.32771220391816,2025-09-04 09h56.12.965147 +0530,
53,0.5,9.5,63.2865080999909,,63.27101689999108,63.2865080999909,63.770220100006554,63.770220100006554,63.770220100006554,64.06983250001213,64.18537890000152,right,9.5,1,1,0.41295030000037514,,,,,527906,001,2025-09-04_09h56.11.577,Experiment,,2025.1.1,60.32771220391816,2025-09-04 09h56.12.965147 +0530,
54,0.5,9.5,64.20182970000315,,64.18553039999097,64.20182970000315,64.68495110000367,64.68495110000367,64.68495110000367,64.98714340000879,65.07007789998897,left,-9.5,1,1,0.3844690000114497,,,,,527906,001,2025-09-04_09h56.11.577,Experiment,,2025.1.1,60.32771220391816,2025-09-04 09h56.12.965147 +0530,
55,0.5,9.5,65.08693250000942,,65.0702750000055,65.08693250000942,65.56982629999402,65.56982629999402,65.56982629999402,65.87034100000164,66.01985979999881,left,-9.5,1,1,0.4465442000073381,,,,,527906,001,2025-09-04_09h56.11.577,Experiment,,2025.1.1,60.32771220391816,2025-09-04 09h56.12.965147 +0530,
56,0.5,9.0,66.03640650000307,,66.02003740001237,66.03640650000307,66.52049590001116,66.52049590001116,66.52049590001116,66.83645149998483,66.97019439999713,right,9.0,1,1,0.4416876999894157,,,,,527906,001,2025-09-04_09h56.11.577,Experiment,,2025.1.1,60.32771220391816,2025-09-04 09h56.12.965147 +0530,
57,0.5,9.0,66.98605909998878,,66.97043899999699,66.98605909998878,67.48652259999653,67.48652259999653,67.48652259999653,67.78637529999833,67.88697570000659,right,9.0,1,1,0.3867411999963224,,,,,527906,001,2025-09-04_09h56.11.577,Experiment,,2025.1.1,60.32771220391816,2025-09-04 09h56.12.965147 +0530,
58,0.5,9.0,67.9034616999852,,67.88722450000932,67.9034616999852,68.38642029999755,68.38642029999755,68.38642029999755,68.68650169999455,69.38711869998951,left,-9.0,1,1,0.9878106999967713,,,,,527906,001,2025-09-04_09h56.11.577,Experiment,,2025.1.1,60.32771220391816,2025-09-04 09h56.12.965147 +0530,
59,0.5,8.5,69.40278770000441,,69.38738759999978,69.40278770000441,69.90166569998837,69.90166569998837,69.90166569998837,70.20307620000676,70.42000589999952,right,8.5,1,1,0.509256599994842,,,,,527906,001,2025-09-04_09h56.11.577,Experiment,,2025.1.1,60.32771220391816,2025-09-04 09h56.12.965147 +0530,
60,0.5,8.5,70.43629350000992,,70.42025299998932,70.43629350000992,70.91964070001268,70.91964070001268,70.91964070001268,71.2196394999919,71.40343460001168,right,8.5,1,1,0.471625900012441,,,,,527906,001,2025-09-04_09h56.11.577,Experiment,,2025.1.1,60.32771220391816,2025-09-04 09h56.12.965147 +0530,
61,0.5,8.5,71.41975579998689,,71.40369529998861,71.41975579998689,71.91909350000788,71.91909350000788,71.91909350000788,72.21953040000517,72.38595510000596,right,8.5,1,1,0.45284159999573603,,,,,527906,001,2025-09-04_09h56.11.577,Experiment,,2025.1.1,60.32771220391816,2025-09-04 09h56.12.965147 +0530,
62,0.5,8.0,72.40206399999443,,72.38617720000912,72.40206399999443,72.88585739998962,72.88585739998962,72.88585739998962,73.18558280001162,73.35395280001103,right,8.0,1,1,0.4524167000199668,,,,,527906,001,2025-09-04_09h56.11.577,Experiment,,2025.1.1,60.32771220391816,2025-09-04 09h56.12.965147 +0530,
63,0.5,8.0,73.36953329999233,,73.35416260000784,73.36953329999233,73.86944619999849,73.86944619999849,73.86944619999849,74.16921120000188,75.08639039998525,left,-8.0,1,1,1.2062296999793034,,,,,527906,001,2025-09-04_09h56.11.577,Experiment,,2025.1.1,60.32771220391816,2025-09-04 09h56.12.965147 +0530,
64,0.5,8.0,75.10253309999825,,75.08664470000076,75.10253309999825,75.58465889998479,75.58465889998479,75.58465889998479,75.88578660000348,76.20217450000928,right,8.0,1,1,0.6018585000128951,,,,,527906,001,2025-09-04_09h56.11.577,Experiment,,2025.1.1,60.32771220391816,2025-09-04 09h56.12.965147 +0530,
65,0.5,7.5,76.21864139998797,,76.20243440000922,76.21864139998797,76.70322269998724,76.70322269998724,76.70322269998724,77.00255450000986,77.26896529999794,left,-7.5,1,1,0.5639191000082064,,,,,527906,001,2025-09-04_09h56.11.577,Experiment,,2025.1.1,60.32771220391816,2025-09-04 09h56.12.965147 +0530,
66,0.5,7.5,77.28533189999871,,77.26921090000542,77.28533189999871,77.76893389999168,77.76893389999168,77.76893389999168,78.06885800001328,78.16993989999173,right,7.5,1,1,0.38996319999569096,,,,,527906,001,2025-09-04_09h56.11.577,Experiment,,2025.1.1,60.32771220391816,2025-09-04 09h56.12.965147 +0530,
67,0.5,7.5,78.18575649999548,,78.17019450000953,78.18575649999548,78.6839570000011,78.6839570000011,78.6839570000011,78.98559820000082,79.10353600000963,left,-7.5,1,1,0.4053221000067424,,,,,527906,001,2025-09-04_09h56.11.577,Experiment,,2025.1.1,60.32771220391816,2025-09-04 09h56.12.965147 +0530,
68,0.5,7.0,79.11900929998956,,79.10380459998851,79.11900929998956,79.61897049998515,79.61897049998515,79.61897049998515,79.91906429998926,79.90320279999287,right,7.0,1,1,0.2715772000083234,,,,,527906,001,2025-09-04_09h56.11.577,Experiment,,2025.1.1,60.32771220391816,2025-09-04 09h56.12.965147 +0530,
69,0.5,7.0,79.91906429998926,,79.90355879999697,79.91906429998926,80.40232580000884,80.40232580000884,80.40232580000884,80.71726720000152,80.91769299999578,right,7.0,1,1,0.5086413999961223,,,,,527906,001,2025-09-04_09h56.11.577,Experiment,,2025.1.1,60.32771220391816,2025-09-04 09h56.12.965147 +0530,
70,0.5,7.0,80.934279899986,,80.91780540000764,80.934279899986,81.41859710001154,81.41859710001154,81.41859710001154,81.7190522000019,81.86837179999566,left,-7.0,1,1,0.4330941999796778,,,,,527906,001,2025-09-04_09h56.11.577,Experiment,,2025.1.1,60.32771220391816,2025-09-04 09h56.12.965147 +0530,
71,0.5,6.5,81.88525180000579,,81.86853820001124,81.88525180000579,82.36831879999954,82.36831879999954,82.36831879999954,82.66895419999491,82.66950670001097,left,-6.5,0,0,0.2949403000238817,,,,,527906,001,2025-09-04_09h56.11.577,Experiment,,2025.1.1,60.32771220391816,2025-09-04 09h56.12.965147 +0530,
72,0.5,7.0,82.68516039999668,,82.66980750000221,82.68516039999668,83.16873679999844,83.16873679999844,83.16873679999844,83.46897519999766,84.00249740001163,left,-7.0,1,1,0.8208547999965958,,,,,527906,001,2025-09-04_09h56.11.577,Experiment,,2025.1.1,60.32771220391816,2025-09-04 09h56.12.965147 +0530,
73,0.5,7.0,84.01868949999334,,84.00274659998831,84.01868949999334,84.50159299999359,84.50159299999359,84.50159299999359,84.80188089999137,84.90250279998872,left,-7.0,1,1,0.3885271000035573,,,,,527906,001,2025-09-04_09h56.11.577,Experiment,,2025.1.1,60.32771220391816,2025-09-04 09h56.12.965147 +0530,
74,0.5,7.0,84.9187161999871,,84.9027175999945,84.9187161999871,85.4022016999952,85.4022016999952,85.4022016999952,85.70205699998769,85.88569739999366,right,7.0,1,1,0.4797158000001218,,,,,527906,001,2025-09-04_09h56.11.577,Experiment,,2025.1.1,60.32771220391816,2025-09-04 09h56.12.965147 +0530,
75,0.5,6.5,85.90206289998605,,85.88594909998938,85.90206289998605,86.38539390001097,86.38539390001097,86.38539390001097,86.68530310000642,86.85213159999694,left,-6.5,1,1,0.45188529998995364,,,,,527906,001,2025-09-04_09h56.11.577,Experiment,,2025.1.1,60.32771220391816,2025-09-04 09h56.12.965147 +0530,
76,0.5,6.5,86.86764429998584,,86.85237949999282,86.86764429998584,87.35193929998786,87.35193929998786,87.35193929998786,87.65186720000929,87.81970530000399,right,6.5,1,1,0.46644789999118075,,,,,527906,001,2025-09-04_09h56.11.577,Experiment,,2025.1.1,60.32771220391816,2025-09-04 09h56.12.965147 +0530,
77,0.5,6.5,87.83464769998682,,87.81997049998608,87.83464769998682,88.33386610000161,88.33386610000161,88.33386610000161,88.63375360000646,89.0349358000094,left,-6.5,0,0,0.6856224000221118,,,,,527906,001,2025-09-04_09h56.11.577,Experiment,,2025.1.1,60.32771220391816,2025-09-04 09h56.12.965147 +0530,
78,0.5,7.0,89.05140130000655,,89.03512970000156,89.05140130000655,89.53590270000859,89.53590270000859,89.53590270000859,89.83512529998552,90.06893020001007,left,-7.0,1,1,0.5200729999924079,,,,,527906,001,2025-09-04_09h56.11.577,Experiment,,2025.1.1,60.32771220391816,2025-09-04 09h56.12.965147 +0530,
79,0.5,7.0,90.08509169999161,,90.06917929998599,90.08509169999161,90.56850419999682,90.56850419999682,90.56850419999682,90.86827400000766,90.95210319999023,left,-7.0,0,0,0.37857920001260936,,,,,527906,001,2025-09-04_09h56.11.577,Experiment,,2025.1.1,60.32771220391816,2025-09-04 09h56.12.965147 +0530,
80,0.5,7.5,90.96775670000352,,90.9523571000027,90.96775670000352,91.46715680000489,91.46715680000489,91.46715680000489,91.76724889999605,92.11791800000356,left,-7.5,1,1,0.650436100026127,,,,,527906,001,2025-09-04_09h56.11.577,Experiment,,2025.1.1,60.32771220391816,2025-09-04 09h56.12.965147 +0530,
81,0.5,7.5,92.13324729999295,,92.11804329999723,92.13324729999295,92.61819489998743,92.61819489998743,92.61819489998743,92.91816470000776,93.0681360999879,right,7.5,1,1,0.44064079999225214,,,,,527906,001,2025-09-04_09h56.11.577,Experiment,,2025.1.1,60.32771220391816,2025-09-04 09h56.12.965147 +0530,
82,0.5,7.5,93.08421110000927,,93.06831430000602,93.08421110000927,93.56810999999288,93.56810999999288,93.56810999999288,93.86831670001266,93.95193000001018,right,7.5,0,0,0.38160040002549067,,,,,527906,001,2025-09-04_09h56.11.577,Experiment,,2025.1.1,60.32771220391816,2025-09-04 09h56.12.965147 +0530,
83,0.5,8.0,93.96763160001137,,93.9521747000108,93.96763160001137,94.46715350000886,94.46715350000886,94.46715350000886,94.76794719998725,94.95178010000382,left,-8.0,0,0,0.47441719999187626,,,,,527906,001,2025-09-04_09h56.11.577,Experiment,,2025.1.1,60.32771220391816,2025-09-04 09h56.12.965147 +0530,
84,0.5,8.5,94.96798300000955,,94.9520160999964,94.96798300000955,95.45137130000512,95.45137130000512,95.45137130000512,95.75116149999667,95.95233780000126,left,-8.5,1,1,0.4906648999894969,,,,,527906,001,2025-09-04_09h56.11.577,Experiment,,2025.1.1,60.32771220391816,2025-09-04 09h56.12.965147 +0530,
85,0.5,8.5,95.96810860000551,,95.95257980001043,95.96810860000551,96.46799750000355,96.46799750000355,96.46799750000355,96.7677519999852,96.78494760001195,right,8.5,1,1,0.3146666999964509,,,,,527906,001,2025-09-04_09h56.11.577,Experiment,,2025.1.1,60.32771220391816,2025-09-04 09h56.12.965147 +0530,
86,0.5,8.5,96.80104779999238,,96.78506009999546,96.80104779999238,97.28454500000225,97.28454500000225,97.28454500000225,97.5844259999867,97.88512069999706,right,8.5,1,1,0.5945652999798767,,,,,527906,001,2025-09-04_09h56.11.577,Experiment,,2025.1.1,60.32771220391816,2025-09-04 09h56.12.965147 +0530,
87,0.5,8.0,97.90124720000313,,97.88537480001105,97.90124720000313,98.38489970000228,98.38489970000228,98.38489970000228,98.6842672000057,98.85168829999748,right,8.0,1,1,0.45518670001183636,,,,,527906,001,2025-09-04_09h56.11.577,Experiment,,2025.1.1,60.32771220391816,2025-09-04 09h56.12.965147 +0530,
88,0.5,8.0,98.86759869998787,,98.8519316999882,98.86759869998787,99.35118040000089,99.35118040000089,99.35118040000089,99.650026599993,99.70191820000764,right,8.0,1,1,0.34044649999123067,,,,,527906,001,2025-09-04_09h56.11.577,Experiment,,2025.1.1,60.32771220391816,2025-09-04 09h56.12.965147 +0530,
89,0.5,8.0,99.71753799999715,,99.7021676999866,99.71753799999715,100.20105090001016,100.20105090001016,100.20105090001016,100.50062350000371,100.5011727999954,left,-8.0,0,0,0.29604139999719337,,,,,527906,001,2025-09-04_09h56.11.577,Experiment,,2025.1.1,60.32771220391816,2025-09-04 09h56.12.965147 +0530,
90,0.5,8.5,100.51782310000272,,100.50143989999196,100.51782310000272,101.00108859999455,101.00108859999455,101.00108859999455,101.30096580000827,101.50163760001305,right,8.5,1,1,0.49236209999071434,,,,,527906,001,2025-09-04_09h56.11.577,Experiment,,2025.1.1,60.32771220391816,2025-09-04 09h56.12.965147 +0530,
91,0.5,8.5,101.51782310000272,,101.50190390000353,101.51782310000272,102.0007127999852,102.0007127999852,102.0007127999852,102.30036799999652,102.3340884000063,right,8.5,1,1,0.31800110000767745,,,,,527906,001,2025-09-04_09h56.11.577,Experiment,,2025.1.1,60.32771220391816,2025-09-04 09h56.12.965147 +0530,
92,0.5,8.5,102.34941639998578,,102.33425730001181,102.34941639998578,102.83413020000444,102.83413020000444,102.83413020000444,103.13453059998574,103.30143650001264,left,-8.5,1,1,0.46083460000227205,,,,,527906,001,2025-09-04_09h56.11.577,Experiment,,2025.1.1,60.32771220391816,2025-09-04 09h56.12.965147 +0530,
93,0.5,8.0,103.31744720001006,,103.3017031000054,103.31744720001006,103.80147609999403,103.80147609999403,103.80147609999403,104.10070099998848,104.20242429999053,right,8.0,1,1,0.39963430000352673,,,,,527906,001,2025-09-04_09h56.11.577,Experiment,,2025.1.1,60.32771220391816,2025-09-04 09h56.12.965147 +0530,
94,0.5,8.0,104.21758369999588,,104.20268519999809,104.21758369999588,104.71748809999553,104.71748809999553,104.71748809999553,105.01758559999871,105.16813780000666,right,8.0,1,1,0.43934789998456836,,,,,527906,001,2025-09-04_09h56.11.577,Experiment,,2025.1.1,60.32771220391816,2025-09-04 09h56.12.965147 +0530,
95,0.5,8.0,105.18387479998637,,105.16838230000576,105.18387479998637,105.68400859998656,105.68400859998656,105.68400859998656,105.98413200001232,106.08447810000507,right,8.0,1,1,0.39376459998311475,,,,,527906,001,2025-09-04_09h56.11.577,Experiment,,2025.1.1,60.32771220391816,2025-09-04 09h56.12.965147 +0530,
96,0.5,7.5,106.10069130000193,,106.08474630001001,106.10069130000193,106.58420350000961,106.58420350000961,106.58420350000961,106.8825754999998,107.6344228000089,left,-7.5,1,1,1.0409764999931213,,,,,527906,001,2025-09-04_09h56.11.577,Experiment,,2025.1.1,60.32771220391816,2025-09-04 09h56.12.965147 +0530,
97,0.5,7.5,107.64956499999971,,107.6345519000024,107.64956499999971,108.13396949999151,108.13396949999151,108.13396949999151,108.43378689998644,108.63432089998969,left,-7.5,1,1,0.48728939998545684,,,,,527906,001,2025-09-04_09h56.11.577,Experiment,,2025.1.1,60.32771220391816,2025-09-04 09h56.12.965147 +0530,
98,0.5,7.5,108.65085730000283,,108.63457110000309,108.65085730000283,109.13389599998482,109.13389599998482,109.13389599998482,109.43404140000348,109.7341630999872,left,-7.5,1,1,0.597413499985123,,,,,527906,001,2025-09-04_09h56.11.577,Experiment,,2025.1.1,60.32771220391816,2025-09-04 09h56.12.965147 +0530,
99,0.5,7.0,109.75053930000286,,109.73439500000677,109.75053930000286,110.23393909999868,110.23393909999868,110.23393909999868,110.53401709999889,110.80111579998629,right,7.0,1,1,0.5537742000014987,,,,,527906,001,2025-09-04_09h56.11.577,Experiment,,2025.1.1,60.32771220391816,2025-09-04 09h56.12.965147 +0530,
,,,,,,,,,,,,,,,,,110.80128019998665,110.81637670000782,112.81750030000694,112.80110609999974,527906,001,2025-09-04_09h56.11.577,Experiment,,2025.1.1,60.32771220391816,2025-09-04 09h56.12.965147 +0530,
