thisN,thisTrialN,thisRepN,mouse.x,mouse.y,mouse.leftButton,mouse.midButton,mouse.rightButton,mouse.time,mouse.clicked_name,trials.thisRepN,trials.thisTrialN,trials.thisN,trials.thisIndex,thisRow.t,notes,num_distr,trial.started,Fixation.started,target.started,mouse.started,trial.stopped,trials.mouse.x,trials.mouse.y,trials.mouse.leftButton,trials.mouse.midButton,trials.mouse.rightButton,trials.mouse.time,trials.mouse.clicked_name,participant,session,date,expName,expVersion,psychopyVersion,frameRate,expStart
1,0,1,np.float64(0.019444444444444445),np.float64(-0.37592592592592594),1,0,0,1.752398,target',1,0,1,0,1.9860102,,5,1.9778021,1.9860102,1.9860102,0.0138371,3.7302944,np.float64(0.019444444444444445),np.float64(-0.37592592592592594),1,0,0,1.752398,target',2,1,2025-09-30_15h20.33.792,Exp Visual Search,,2025.1.1,59.91137911,2025-09-30 15h20.49.430041 +0530
2,0,2,np.float64(-0.43703703703703706),np.float64(-0.04814814814814815),1,0,0,1.4385429,target',2,0,2,0,3.7497333,,5,3.7413871,3.7497333,3.7497333,0.0109706,5.1800178,np.float64(-0.43703703703703706),np.float64(-0.04814814814814815),1,0,0,1.4385429,target',2,1,2025-09-30_15h20.33.792,Exp Visual Search,,2025.1.1,59.91137911,2025-09-30 15h20.49.430041 +0530
5,0,5,np.float64(-0.021296296296296296),np.float64(-0.4638888888888889),1,0,0,2.1726723,target',5,0,5,0,9.3812146,,5,9.3733491,9.3812146,9.3812146,0.0105521,11.5461211,np.float64(-0.021296296296296296),np.float64(-0.4638888888888889),1,0,0,2.1726723,target',2,1,2025-09-30_15h20.33.792,Exp Visual Search,,2025.1.1,59.91137911,2025-09-30 15h20.49.430041 +0530
6,0,6,np.float64(-0.19907407407407407),np.float64(0.32314814814814813),1,0,0,1.5212895,target',6,0,6,0,11.5654832,,5,11.5580809,11.5654832,11.5654832,0.0117706,13.07944,np.float64(-0.19907407407407407),np.float64(0.32314814814814813),1,0,0,1.5212895,target',2,1,2025-09-30_15h20.33.792,Exp Visual Search,,2025.1.1,59.91137911,2025-09-30 15h20.49.430041 +0530
7,0,7,np.float64(-0.262037037037037),np.float64(-0.026851851851851852),1,0,0,1.2051347,target',7,0,7,0,13.0976936,,5,13.0905308,13.0976936,13.0976936,0.0109389,14.2957236,np.float64(-0.262037037037037),np.float64(-0.026851851851851852),1,0,0,1.2051347,target',2,1,2025-09-30_15h20.33.792,Exp Visual Search,,2025.1.1,59.91137911,2025-09-30 15h20.49.430041 +0530
8,0,8,np.float64(0.07962962962962963),np.float64(0.33425925925925926),1,0,0,1.2721781,target',8,0,8,0,14.3156597,,5,14.3067522,14.3156597,14.3156597,0.0109192,15.5790105,np.float64(0.07962962962962963),np.float64(0.33425925925925926),1,0,0,1.2721781,target',2,1,2025-09-30_15h20.33.792,Exp Visual Search,,2025.1.1,59.91137911,2025-09-30 15h20.49.430041 +0530
10,0,10,np.float64(0.3574074074074074),np.float64(-0.22777777777777777),1,0,0,1.3217437,None,10,0,10,0,16.8978772,,5,16.8903059,16.8978772,16.8978772,0.0111669,18.212152,np.float64(0.3574074074074074),np.float64(-0.22777777777777777),1,0,0,1.3217437,None,2,1,2025-09-30_15h20.33.792,Exp Visual Search,,2025.1.1,59.91137911,2025-09-30 15h20.49.430041 +0530
15,0,15,np.float64(-0.044444444444444446),np.float64(0.2777777777777778),1,0,0,1.0019383,target',15,0,15,0,25.0864923,,5,25.0764482,25.0864923,25.0864923,0.0143096,26.0784348,np.float64(-0.044444444444444446),np.float64(0.2777777777777778),1,0,0,1.0019383,target',2,1,2025-09-30_15h20.33.792,Exp Visual Search,,2025.1.1,59.91137911,2025-09-30 15h20.49.430041 +0530
20,0,20,np.float64(0.39351851851851855),np.float64(-0.07962962962962963),1,0,0,1.3728104,None,20,0,20,0,33.3798231,,5,33.3716413,33.3798231,33.3798231,0.0096686,34.7445149,np.float64(0.39351851851851855),np.float64(-0.07962962962962963),1,0,0,1.3728104,None,2,1,2025-09-30_15h20.33.792,Exp Visual Search,,2025.1.1,59.91137911,2025-09-30 15h20.49.430041 +0530
26,0,26,np.float64(0.05185185185185185),np.float64(0.09166666666666666),1,0,0,1.4038831,target',26,0,26,0,45.1303976,,5,45.1232399,45.1303976,45.1303976,0.0124536,46.5271754,np.float64(0.05185185185185185),np.float64(0.09166666666666666),1,0,0,1.4038831,target',2,1,2025-09-30_15h20.33.792,Exp Visual Search,,2025.1.1,59.91137911,2025-09-30 15h20.49.430041 +0530
27,0,27,np.float64(-0.31574074074074077),np.float64(-0.25),1,0,0,1.7896577,target',27,0,27,0,46.5444409,,5,46.5368818,46.5444409,46.5444409,0.0096038,48.326599,np.float64(-0.31574074074074077),np.float64(-0.25),1,0,0,1.7896577,target',2,1,2025-09-30_15h20.33.792,Exp Visual Search,,2025.1.1,59.91137911,2025-09-30 15h20.49.430041 +0530
30,0,30,np.float64(-0.2074074074074074),np.float64(-0.09907407407407408),1,0,0,1.5739291,target',30,0,30,0,52.7116359,,5,52.7027587,52.7116359,52.7116359,0.0092227,54.2767439,np.float64(-0.2074074074074074),np.float64(-0.09907407407407408),1,0,0,1.5739291,target',2,1,2025-09-30_15h20.33.792,Exp Visual Search,,2025.1.1,59.91137911,2025-09-30 15h20.49.430041 +0530
31,0,31,np.float64(0.04259259259259259),np.float64(0.37037037037037035),1,0,0,1.7227348,target',31,0,31,0,54.2947439,,5,54.2869997,54.2947439,54.2947439,0.0101492,56.0098068,np.float64(0.04259259259259259),np.float64(0.37037037037037035),1,0,0,1.7227348,target',2,1,2025-09-30_15h20.33.792,Exp Visual Search,,2025.1.1,59.91137911,2025-09-30 15h20.49.430041 +0530
33,0,33,np.float64(-0.08611111111111111),np.float64(0.06296296296296296),1,0,0,1.1216198,target',33,0,33,0,58.1625989,,5,58.1547052,58.1625989,58.1625989,0.0112662,59.2763894,np.float64(-0.08611111111111111),np.float64(0.06296296296296296),1,0,0,1.1216198,target',2,1,2025-09-30_15h20.33.792,Exp Visual Search,,2025.1.1,59.91137911,2025-09-30 15h20.49.430041 +0530
38,0,38,np.float64(0.26296296296296295),np.float64(0.2851851851851852),1,0,0,1.7405202,target',38,0,38,0,65.1444714,,5,65.1363645,65.1444714,65.1444714,0.0099062,66.8769745,np.float64(0.26296296296296295),np.float64(0.2851851851851852),1,0,0,1.7405202,target',2,1,2025-09-30_15h20.33.792,Exp Visual Search,,2025.1.1,59.91137911,2025-09-30 15h20.49.430041 +0530
40,0,40,np.float64(-0.2111111111111111),np.float64(-0.06388888888888888),1,0,0,1.3038924,target',40,0,40,0,68.6802659,,5,68.6718152,68.6802659,68.6802659,0.0120927,69.975765,np.float64(-0.2111111111111111),np.float64(-0.06388888888888888),1,0,0,1.3038924,target',2,1,2025-09-30_15h20.33.792,Exp Visual Search,,2025.1.1,59.91137911,2025-09-30 15h20.49.430041 +0530
47,0,47,np.float64(0.10277777777777777),np.float64(-0.31296296296296294),1,0,0,1.6050096,None,47,0,47,0,87.360897,,5,87.3528483,87.360897,87.360897,0.010766,88.9579171,np.float64(0.10277777777777777),np.float64(-0.31296296296296294),1,0,0,1.6050096,None,2,1,2025-09-30_15h20.33.792,Exp Visual Search,,2025.1.1,59.91137911,2025-09-30 15h20.49.430041 +0530
55,0,55,np.float64(0.49166666666666664),np.float64(-0.18055555555555555),1,0,0,1.6379081,target',55,0,55,0,101.0608948,,5,101.0525088,101.0608948,101.0608948,0.0114776,102.690463,np.float64(0.49166666666666664),np.float64(-0.18055555555555555),1,0,0,1.6379081,target',2,1,2025-09-30_15h20.33.792,Exp Visual Search,,2025.1.1,59.91137911,2025-09-30 15h20.49.430041 +0530
58,0,58,np.float64(0.2611111111111111),np.float64(0.028703703703703703),1,0,0,1.1568464,None,58,0,58,0,106.0083254,,5,106.0003682,106.0083254,106.0083254,0.0098904,107.1573085,np.float64(0.2611111111111111),np.float64(0.028703703703703703),1,0,0,1.1568464,None,2,1,2025-09-30_15h20.33.792,Exp Visual Search,,2025.1.1,59.91137911,2025-09-30 15h20.49.430041 +0530
61,0,61,np.float64(-0.05740740740740741),np.float64(0.29814814814814816),1,0,0,1.5515567,None,61,0,61,0,109.5321813,,5,109.5215954,109.5321813,109.5321813,0.0149766,111.0732097,np.float64(-0.05740740740740741),np.float64(0.29814814814814816),1,0,0,1.5515567,None,2,1,2025-09-30_15h20.33.792,Exp Visual Search,,2025.1.1,59.91137911,2025-09-30 15h20.49.430041 +0530
62,0,62,np.float64(0.48055555555555557),np.float64(0.004629629629629629),1,0,0,1.3557952,None,62,0,62,0,111.0934441,,5,111.0839281,111.0934441,111.0934441,0.0106081,112.4397764,np.float64(0.48055555555555557),np.float64(0.004629629629629629),1,0,0,1.3557952,None,2,1,2025-09-30_15h20.33.792,Exp Visual Search,,2025.1.1,59.91137911,2025-09-30 15h20.49.430041 +0530
63,0,63,np.float64(-0.09074074074074075),np.float64(0.10185185185185185),1,0,0,1.1710659,None,63,0,63,0,112.4616995,,5,112.4521349,112.4616995,112.4616995,0.0122601,113.6232978,np.float64(-0.09074074074074075),np.float64(0.10185185185185185),1,0,0,1.1710659,None,2,1,2025-09-30_15h20.33.792,Exp Visual Search,,2025.1.1,59.91137911,2025-09-30 15h20.49.430041 +0530
64,0,64,np.float64(-0.31203703703703706),np.float64(0.42777777777777776),1,0,0,1.6391633,None,64,0,64,0,113.6426245,,5,113.6337113,113.6426245,113.6426245,0.010241,115.2729376,np.float64(-0.31203703703703706),np.float64(0.42777777777777776),1,0,0,1.6391633,None,2,1,2025-09-30_15h20.33.792,Exp Visual Search,,2025.1.1,59.91137911,2025-09-30 15h20.49.430041 +0530
67,0,67,np.float64(0.18981481481481483),np.float64(0.38333333333333336),1,0,0,2.388099,target',67,0,67,0,119.0264913,,5,119.0175132,119.0264913,119.0264913,0.0109434,121.4056691,np.float64(0.18981481481481483),np.float64(0.38333333333333336),1,0,0,2.388099,target',2,1,2025-09-30_15h20.33.792,Exp Visual Search,,2025.1.1,59.91137911,2025-09-30 15h20.49.430041 +0530
69,0,69,np.float64(0.39814814814814814),np.float64(-0.4648148148148148),1,0,0,1.8718245,target',69,0,69,0,122.5605304,,5,122.5507349,122.5605304,122.5605304,0.0109674,124.4226215,np.float64(0.39814814814814814),np.float64(-0.4648148148148148),1,0,0,1.8718245,target',2,1,2025-09-30_15h20.33.792,Exp Visual Search,,2025.1.1,59.91137911,2025-09-30 15h20.49.430041 +0530
72,0,72,np.float64(-0.24166666666666667),np.float64(-0.2564814814814815),1,0,0,1.6063655,target',72,0,72,0,130.5925865,,5,130.5823797,130.5925865,130.5925865,0.0101379,132.1888054,np.float64(-0.24166666666666667),np.float64(-0.2564814814814815),1,0,0,1.6063655,target',2,1,2025-09-30_15h20.33.792,Exp Visual Search,,2025.1.1,59.91137911,2025-09-30 15h20.49.430041 +0530
73,0,73,np.float64(-0.20462962962962963),np.float64(0.4324074074074074),1,0,0,1.6217123,target',73,0,73,0,132.209468,,5,132.1998634,132.209468,132.209468,0.0109401,133.8216265,np.float64(-0.20462962962962963),np.float64(0.4324074074074074),1,0,0,1.6217123,target',2,1,2025-09-30_15h20.33.792,Exp Visual Search,,2025.1.1,59.91137911,2025-09-30 15h20.49.430041 +0530
74,0,74,np.float64(-0.31203703703703706),np.float64(-0.06296296296296296),1,0,0,1.3913524,target',74,0,74,0,133.838727,,5,133.8312385,133.838727,133.838727,0.0095234,135.2227443,np.float64(-0.31203703703703706),np.float64(-0.06296296296296296),1,0,0,1.3913524,target',2,1,2025-09-30_15h20.33.792,Exp Visual Search,,2025.1.1,59.91137911,2025-09-30 15h20.49.430041 +0530
75,0,75,np.float64(0.4583333333333333),np.float64(0.011111111111111112),1,0,0,1.8042495,target',75,0,75,0,135.2442695,,5,135.2340036,135.2442695,135.2442695,0.0110019,137.0383091,np.float64(0.4583333333333333),np.float64(0.011111111111111112),1,0,0,1.8042495,target',2,1,2025-09-30_15h20.33.792,Exp Visual Search,,2025.1.1,59.91137911,2025-09-30 15h20.49.430041 +0530
76,0,76,np.float64(-0.05648148148148148),np.float64(0.4361111111111111),1,0,0,1.7213364,None,76,0,76,0,137.061212,,5,137.0502212,137.061212,137.061212,0.0118107,138.7716226,np.float64(-0.05648148148148148),np.float64(0.4361111111111111),1,0,0,1.7213364,None,2,1,2025-09-30_15h20.33.792,Exp Visual Search,,2025.1.1,59.91137911,2025-09-30 15h20.49.430041 +0530
77,0,77,np.float64(0.17037037037037037),np.float64(-0.12962962962962962),1,0,0,1.6367933,target',77,0,77,0,138.7927521,,5,138.7846001,138.7927521,138.7927521,0.0128747,140.4214534,np.float64(0.17037037037037037),np.float64(-0.12962962962962962),1,0,0,1.6367933,target',2,1,2025-09-30_15h20.33.792,Exp Visual Search,,2025.1.1,59.91137911,2025-09-30 15h20.49.430041 +0530
80,0,80,np.float64(0.34629629629629627),np.float64(-0.2638888888888889),1,0,0,1.4226742,target',80,0,80,0,143.3242902,,5,143.3152654,143.3242902,143.3242902,0.0103009,144.7380379,np.float64(0.34629629629629627),np.float64(-0.2638888888888889),1,0,0,1.4226742,target',2,1,2025-09-30_15h20.33.792,Exp Visual Search,,2025.1.1,59.91137911,2025-09-30 15h20.49.430041 +0530
81,0,81,np.float64(-0.5027777777777778),np.float64(-0.2861111111111111),1,0,0,1.5668839,target',81,0,81,0,144.7651324,,5,144.7540093,144.7651324,144.7651324,0.0157565,146.3209466,np.float64(-0.5027777777777778),np.float64(-0.2861111111111111),1,0,0,1.5668839,target',2,1,2025-09-30_15h20.33.792,Exp Visual Search,,2025.1.1,59.91137911,2025-09-30 15h20.49.430041 +0530
82,0,82,np.float64(0.025925925925925925),np.float64(-0.21481481481481482),1,0,0,2.2900114,target',82,0,82,0,146.3395562,,5,146.3308075,146.3395562,146.3395562,0.0097552,148.6208843,np.float64(0.025925925925925925),np.float64(-0.21481481481481482),1,0,0,2.2900114,target',2,1,2025-09-30_15h20.33.792,Exp Visual Search,,2025.1.1,59.91137911,2025-09-30 15h20.49.430041 +0530
83,0,83,np.float64(-0.10185185185185185),np.float64(0.37777777777777777),1,0,0,2.106319,target',83,0,83,0,148.6415631,,5,148.6310523,148.6415631,148.6415631,0.009997,150.7374288,np.float64(-0.10185185185185185),np.float64(0.37777777777777777),1,0,0,2.106319,target',2,1,2025-09-30_15h20.33.792,Exp Visual Search,,2025.1.1,59.91137911,2025-09-30 15h20.49.430041 +0530
84,0,84,np.float64(-0.07777777777777778),np.float64(-0.12407407407407407),1,0,0,2.1715929,target',84,0,84,0,150.7572791,,5,150.7488763,150.7572791,150.7572791,0.0113545,152.9205203,np.float64(-0.07777777777777778),np.float64(-0.12407407407407407),1,0,0,2.1715929,target',2,1,2025-09-30_15h20.33.792,Exp Visual Search,,2025.1.1,59.91137911,2025-09-30 15h20.49.430041 +0530
85,0,85,np.float64(0.03425925925925926),np.float64(-0.37777777777777777),1,0,0,2.2905421,target',85,0,85,0,152.9397526,,5,152.9300948,152.9397526,152.9397526,0.0094819,155.2207141,np.float64(0.03425925925925926),np.float64(-0.37777777777777777),1,0,0,2.2905421,target',2,1,2025-09-30_15h20.33.792,Exp Visual Search,,2025.1.1,59.91137911,2025-09-30 15h20.49.430041 +0530
86,0,86,np.float64(0.19814814814814816),np.float64(-0.16944444444444445),1,0,0,1.8053133,target',86,0,86,0,155.2419372,,5,155.2316849,155.2419372,155.2419372,0.0108245,157.0370591,np.float64(0.19814814814814816),np.float64(-0.16944444444444445),1,0,0,1.8053133,target',2,1,2025-09-30_15h20.33.792,Exp Visual Search,,2025.1.1,59.91137911,2025-09-30 15h20.49.430041 +0530
90,0,90,np.float64(-0.2564814814814815),np.float64(-0.04722222222222222),1,0,0,1.2723171,target',90,0,90,0,164.741312,,5,164.7313855,164.741312,164.741312,0.0111298,166.0038089,np.float64(-0.2564814814814815),np.float64(-0.04722222222222222),1,0,0,1.2723171,target',2,1,2025-09-30_15h20.33.792,Exp Visual Search,,2025.1.1,59.91137911,2025-09-30 15h20.49.430041 +0530
91,0,91,np.float64(0.4),np.float64(0.26296296296296295),1,0,0,1.4520814,target',91,0,91,0,166.028691,,5,166.0176168,166.028691,166.028691,0.013563,167.4697728,np.float64(0.4),np.float64(0.26296296296296295),1,0,0,1.4520814,target',2,1,2025-09-30_15h20.33.792,Exp Visual Search,,2025.1.1,59.91137911,2025-09-30 15h20.49.430041 +0530
92,0,92,np.float64(0.2972222222222222),np.float64(-0.46574074074074073),1,0,0,2.2053012,target',92,0,92,0,167.492351,,5,167.4809465,167.492351,167.492351,0.0110262,169.6863181,np.float64(0.2972222222222222),np.float64(-0.46574074074074073),1,0,0,2.2053012,target',2,1,2025-09-30_15h20.33.792,Exp Visual Search,,2025.1.1,59.91137911,2025-09-30 15h20.49.430041 +0530
94,0,94,np.float64(-0.4583333333333333),np.float64(0.007407407407407408),1,0,0,1.3891848,target',94,0,94,0,170.7574379,,5,170.7468205,170.7574379,170.7574379,0.0107372,172.1360593,np.float64(-0.4583333333333333),np.float64(0.007407407407407408),1,0,0,1.3891848,target',2,1,2025-09-30_15h20.33.792,Exp Visual Search,,2025.1.1,59.91137911,2025-09-30 15h20.49.430041 +0530
98,0,98,np.float64(0.08148148148148149),np.float64(0.33425925925925926),1,0,0,1.6719052,target',98,0,98,0,176.6394942,,5,176.630841,176.6394942,176.6394942,0.0110465,178.3028069,np.float64(0.08148148148148149),np.float64(0.33425925925925926),1,0,0,1.6719052,target',2,1,2025-09-30_15h20.33.792,Exp Visual Search,,2025.1.1,59.91137911,2025-09-30 15h20.49.430041 +0530
103,0,103,np.float64(-0.43703703703703706),np.float64(-0.013888888888888888),1,0,0,1.3734002,target',103,0,103,0,184.7382136,,5,184.7289473,184.7382136,184.7382136,0.0099554,186.1024152,np.float64(-0.43703703703703706),np.float64(-0.013888888888888888),1,0,0,1.3734002,target',2,1,2025-09-30_15h20.33.792,Exp Visual Search,,2025.1.1,59.91137911,2025-09-30 15h20.49.430041 +0530
105,0,105,np.float64(-0.18425925925925926),np.float64(-0.31666666666666665),1,0,0,1.2240852,target',105,0,105,0,187.2532652,,5,187.2443193,187.2532652,187.2532652,0.0092446,188.4684717,np.float64(-0.18425925925925926),np.float64(-0.31666666666666665),1,0,0,1.2240852,target',2,1,2025-09-30_15h20.33.792,Exp Visual Search,,2025.1.1,59.91137911,2025-09-30 15h20.49.430041 +0530
106,0,106,np.float64(0.33055555555555555),np.float64(-0.06111111111111111),1,0,0,1.1566019,target',106,0,106,0,188.4893693,,5,188.4783309,188.4893693,188.4893693,0.0097352,189.6350059,np.float64(0.33055555555555555),np.float64(-0.06111111111111111),1,0,0,1.1566019,target',2,1,2025-09-30_15h20.33.792,Exp Visual Search,,2025.1.1,59.91137911,2025-09-30 15h20.49.430041 +0530
108,0,108,np.float64(0.19537037037037036),np.float64(-0.07962962962962963),1,0,0,1.2223663,target',108,0,108,0,191.0745326,,5,191.0629461,191.0745326,191.0745326,0.0110158,192.285373,np.float64(0.19537037037037036),np.float64(-0.07962962962962963),1,0,0,1.2223663,target',2,1,2025-09-30_15h20.33.792,Exp Visual Search,,2025.1.1,59.91137911,2025-09-30 15h20.49.430041 +0530
109,0,109,np.float64(0.1527777777777778),np.float64(-0.3388888888888889),1,0,0,1.1882481,target',109,0,109,0,192.3065594,,5,192.2976795,192.3065594,192.3065594,0.0122143,193.4860955,np.float64(0.1527777777777778),np.float64(-0.3388888888888889),1,0,0,1.1882481,target',2,1,2025-09-30_15h20.33.792,Exp Visual Search,,2025.1.1,59.91137911,2025-09-30 15h20.49.430041 +0530
111,0,111,np.float64(0.1037037037037037),np.float64(0.175),1,0,0,1.5403328,target',111,0,111,0,195.7559774,,5,195.7452501,195.7559774,195.7559774,0.0107389,197.2857337,np.float64(0.1037037037037037),np.float64(0.175),1,0,0,1.5403328,target',2,1,2025-09-30_15h20.33.792,Exp Visual Search,,2025.1.1,59.91137911,2025-09-30 15h20.49.430041 +0530
114,0,114,np.float64(-0.009259259259259259),np.float64(-0.33796296296296297),1,0,0,1.3055173,None,114,0,114,0,200.4366131,,5,200.4288936,200.4366131,200.4366131,0.0106834,201.7344777,np.float64(-0.009259259259259259),np.float64(-0.33796296296296297),1,0,0,1.3055173,None,2,1,2025-09-30_15h20.33.792,Exp Visual Search,,2025.1.1,59.91137911,2025-09-30 15h20.49.430041 +0530
115,0,115,np.float64(0.3388888888888889),np.float64(0.40185185185185185),1,0,0,1.4057274,target',115,0,115,0,201.7529945,,5,201.7450817,201.7529945,201.7529945,0.0103974,203.1508623,np.float64(0.3388888888888889),np.float64(0.40185185185185185),1,0,0,1.4057274,target',2,1,2025-09-30_15h20.33.792,Exp Visual Search,,2025.1.1,59.91137911,2025-09-30 15h20.49.430041 +0530
122,0,122,np.float64(-0.2898148148148148),np.float64(0.27870370370370373),1,0,0,2.0711774,target',122,0,122,0,214.6047208,,5,214.5958135,214.6047208,214.6047208,0.0121341,216.6670641,np.float64(-0.2898148148148148),np.float64(0.27870370370370373),1,0,0,2.0711774,target',2,1,2025-09-30_15h20.33.792,Exp Visual Search,,2025.1.1,59.91137911,2025-09-30 15h20.49.430041 +0530
124,0,124,np.float64(-0.20833333333333334),np.float64(-0.35),1,0,0,2.1919264,target',124,0,124,0,218.2855963,,5,218.2757377,218.2855963,218.2855963,0.0089746,220.4678079,np.float64(-0.20833333333333334),np.float64(-0.35),1,0,0,2.1919264,target',2,1,2025-09-30_15h20.33.792,Exp Visual Search,,2025.1.1,59.91137911,2025-09-30 15h20.49.430041 +0530
127,0,127,np.float64(-0.35833333333333334),np.float64(0.15555555555555556),1,0,0,1.5216242,target',127,0,127,0,224.8543126,,5,224.8445424,224.8543126,224.8543126,0.0113582,226.3662468,np.float64(-0.35833333333333334),np.float64(0.15555555555555556),1,0,0,1.5216242,target',2,1,2025-09-30_15h20.33.792,Exp Visual Search,,2025.1.1,59.91137911,2025-09-30 15h20.49.430041 +0530
129,0,129,np.float64(-0.14351851851851852),np.float64(0.49907407407407406),1,0,0,1.4571005,target',129,0,129,0,227.9510422,,5,227.9421058,227.9510422,227.9510422,0.009419,229.3992698,np.float64(-0.14351851851851852),np.float64(0.49907407407407406),1,0,0,1.4571005,target',2,1,2025-09-30_15h20.33.792,Exp Visual Search,,2025.1.1,59.91137911,2025-09-30 15h20.49.430041 +0530
130,0,130,np.float64(0.3037037037037037),np.float64(-0.3925925925925926),1,0,0,2.0238665,target',130,0,130,0,229.4185787,,5,229.4089998,229.4185787,229.4185787,0.0096265,231.4329279,np.float64(0.3037037037037037),np.float64(-0.3925925925925926),1,0,0,2.0238665,target',2,1,2025-09-30_15h20.33.792,Exp Visual Search,,2025.1.1,59.91137911,2025-09-30 15h20.49.430041 +0530
131,0,131,np.float64(-0.06388888888888888),np.float64(0.47314814814814815),1,0,0,1.6707485,target',131,0,131,0,231.4537299,,5,231.4454021,231.4537299,231.4537299,0.012377,233.1162394,np.float64(-0.06388888888888888),np.float64(0.47314814814814815),1,0,0,1.6707485,target',2,1,2025-09-30_15h20.33.792,Exp Visual Search,,2025.1.1,59.91137911,2025-09-30 15h20.49.430041 +0530
134,0,134,np.float64(-0.38425925925925924),np.float64(-0.2324074074074074),1,0,0,2.1224465,target',134,0,134,0,240.2351511,,5,240.2268275,240.2351511,240.2351511,0.0110479,242.3493667,np.float64(-0.38425925925925924),np.float64(-0.2324074074074074),1,0,0,2.1224465,target',2,1,2025-09-30_15h20.33.792,Exp Visual Search,,2025.1.1,59.91137911,2025-09-30 15h20.49.430041 +0530
135,0,135,np.float64(-0.45555555555555555),np.float64(-0.08148148148148149),1,0,0,1.4040443,target',135,0,135,0,242.3687006,,5,242.3610314,242.3687006,242.3687006,0.0114844,243.7651592,np.float64(-0.45555555555555555),np.float64(-0.08148148148148149),1,0,0,1.4040443,target',2,1,2025-09-30_15h20.33.792,Exp Visual Search,,2025.1.1,59.91137911,2025-09-30 15h20.49.430041 +0530
137,0,137,np.float64(0.2564814814814815),np.float64(0.4537037037037037),1,0,0,1.7895425,target',137,0,137,0,245.9184319,,5,245.9088475,245.9184319,245.9184319,0.0106951,247.6984844,np.float64(0.2564814814814815),np.float64(0.4537037037037037),1,0,0,1.7895425,target',2,1,2025-09-30_15h20.33.792,Exp Visual Search,,2025.1.1,59.91137911,2025-09-30 15h20.49.430041 +0530
139,0,139,np.float64(0.2824074074074074),np.float64(0.4685185185185185),1,0,0,1.3546984,target',139,0,139,0,249.8685588,,5,249.8604466,249.8685588,249.8685588,0.0118284,251.215215,np.float64(0.2824074074074074),np.float64(0.4685185185185185),1,0,0,1.3546984,target',2,1,2025-09-30_15h20.33.792,Exp Visual Search,,2025.1.1,59.91137911,2025-09-30 15h20.49.430041 +0530
141,0,141,np.float64(0.09351851851851851),np.float64(-0.1814814814814815),1,0,0,1.1863493,target',141,0,141,0,254.4183779,,5,254.4111246,254.4183779,254.4183779,0.0123118,255.5975249,np.float64(0.09351851851851851),np.float64(-0.1814814814814815),1,0,0,1.1863493,target',2,1,2025-09-30_15h20.33.792,Exp Visual Search,,2025.1.1,59.91137911,2025-09-30 15h20.49.430041 +0530
142,0,142,np.float64(-0.4388888888888889),np.float64(-0.4842592592592593),1,0,0,2.3243377,target',142,0,142,0,255.6166635,,5,255.6069364,255.6166635,255.6166635,0.0093203,257.931342,np.float64(-0.4388888888888889),np.float64(-0.4842592592592593),1,0,0,2.3243377,target',2,1,2025-09-30_15h20.33.792,Exp Visual Search,,2025.1.1,59.91137911,2025-09-30 15h20.49.430041 +0530
144,0,144,np.float64(-0.08055555555555556),np.float64(-0.2),1,0,0,3.0241033,target',144,0,144,0,260.051296,,5,260.0405354,260.051296,260.051296,0.009824,263.0647289,np.float64(-0.08055555555555556),np.float64(-0.2),1,0,0,3.0241033,target',2,1,2025-09-30_15h20.33.792,Exp Visual Search,,2025.1.1,59.91137911,2025-09-30 15h20.49.430041 +0530
146,0,146,np.float64(-0.4425925925925926),np.float64(0.3907407407407407),1,0,0,1.8329123,target',146,0,146,0,265.8242536,,5,265.8143997,265.8242536,265.8242536,0.0163148,267.6473771,np.float64(-0.4425925925925926),np.float64(0.3907407407407407),1,0,0,1.8329123,target',2,1,2025-09-30_15h20.33.792,Exp Visual Search,,2025.1.1,59.91137911,2025-09-30 15h20.49.430041 +0530
147,0,147,np.float64(0.4083333333333333),np.float64(0.1388888888888889),1,0,0,1.6221297,target',147,0,147,0,267.668578,,5,267.6584758,267.668578,267.668578,0.0109688,269.280745,np.float64(0.4083333333333333),np.float64(0.1388888888888889),1,0,0,1.6221297,target',2,1,2025-09-30_15h20.33.792,Exp Visual Search,,2025.1.1,59.91137911,2025-09-30 15h20.49.430041 +0530
149,0,149,np.float64(0.020370370370370372),np.float64(0.4203703703703704),1,0,0,1.7898975,target',149,0,149,0,271.1158606,,5,271.107587,271.1158606,271.1158606,0.0102986,272.8976386,np.float64(0.020370370370370372),np.float64(0.4203703703703704),1,0,0,1.7898975,target',2,1,2025-09-30_15h20.33.792,Exp Visual Search,,2025.1.1,59.91137911,2025-09-30 15h20.49.430041 +0530
151,0,151,np.float64(0.26481481481481484),np.float64(0.02962962962962963),1,0,0,1.5046347,target',151,0,151,0,274.7356664,,5,274.7253532,274.7356664,274.7356664,0.0121325,276.2300577,np.float64(0.26481481481481484),np.float64(0.02962962962962963),1,0,0,1.5046347,target',2,1,2025-09-30_15h20.33.792,Exp Visual Search,,2025.1.1,59.91137911,2025-09-30 15h20.49.430041 +0530
155,0,155,np.float64(-0.13703703703703704),np.float64(-0.4777777777777778),1,0,0,1.9372768,target',155,0,155,0,286.6508168,,5,286.6418858,286.6508168,286.6508168,0.0123262,288.5792205,np.float64(-0.13703703703703704),np.float64(-0.4777777777777778),1,0,0,1.9372768,target',2,1,2025-09-30_15h20.33.792,Exp Visual Search,,2025.1.1,59.91137911,2025-09-30 15h20.49.430041 +0530
156,0,156,np.float64(0.1175925925925926),np.float64(-0.3537037037037037),1,0,0,1.4406488,target',156,0,156,0,288.5983492,,5,288.588789,288.5983492,288.5983492,0.0094643,290.029521,np.float64(0.1175925925925926),np.float64(-0.3537037037037037),1,0,0,1.4406488,target',2,1,2025-09-30_15h20.33.792,Exp Visual Search,,2025.1.1,59.91137911,2025-09-30 15h20.49.430041 +0530
157,0,157,np.float64(-0.4305555555555556),np.float64(-0.34074074074074073),1,0,0,1.3558942,target',157,0,157,0,290.050698,,5,290.0401521,290.050698,290.050698,0.0104728,291.3961348,np.float64(-0.4305555555555556),np.float64(-0.34074074074074073),1,0,0,1.3558942,target',2,1,2025-09-30_15h20.33.792,Exp Visual Search,,2025.1.1,59.91137911,2025-09-30 15h20.49.430041 +0530
158,0,158,np.float64(-0.07685185185185185),np.float64(0.29259259259259257),1,0,0,1.6565706,target',158,0,158,0,291.4153163,,5,291.4057043,291.4153163,291.4153163,0.0094589,293.0623322,np.float64(-0.07685185185185185),np.float64(0.29259259259259257),1,0,0,1.6565706,target',2,1,2025-09-30_15h20.33.792,Exp Visual Search,,2025.1.1,59.91137911,2025-09-30 15h20.49.430041 +0530
159,0,159,np.float64(-0.03888888888888889),np.float64(-0.3212962962962963),1,0,0,1.6191735,target',159,0,159,0,293.0869221,,5,293.0763268,293.0869221,293.0869221,0.0138968,294.6955722,np.float64(-0.03888888888888889),np.float64(-0.3212962962962963),1,0,0,1.6191735,target',2,1,2025-09-30_15h20.33.792,Exp Visual Search,,2025.1.1,59.91137911,2025-09-30 15h20.49.430041 +0530
162,0,162,np.float64(-0.3),np.float64(0.275),1,0,0,1.3232777,target',162,0,162,0,297.8802313,,5,297.8719546,297.8802313,297.8802313,0.0100541,299.1953271,np.float64(-0.3),np.float64(0.275),1,0,0,1.3232777,target',2,1,2025-09-30_15h20.33.792,Exp Visual Search,,2025.1.1,59.91137911,2025-09-30 15h20.49.430041 +0530
164,0,164,np.float64(-0.34074074074074073),np.float64(-0.4287037037037037),1,0,0,1.4898013,target',164,0,164,0,301.0132347,,5,301.0050872,301.0132347,301.0132347,0.0100802,302.4949408,np.float64(-0.34074074074074073),np.float64(-0.4287037037037037),1,0,0,1.4898013,target',2,1,2025-09-30_15h20.33.792,Exp Visual Search,,2025.1.1,59.91137911,2025-09-30 15h20.49.430041 +0530
165,0,165,np.float64(-0.21388888888888888),np.float64(0.18981481481481483),1,0,0,1.8407806,target',165,0,165,0,302.5148781,,5,302.5045195,302.5148781,302.5148781,0.0094793,304.3454009,np.float64(-0.21388888888888888),np.float64(0.18981481481481483),1,0,0,1.8407806,target',2,1,2025-09-30_15h20.33.792,Exp Visual Search,,2025.1.1,59.91137911,2025-09-30 15h20.49.430041 +0530
171,0,171,np.float64(-0.2833333333333333),np.float64(0.3648148148148148),1,0,0,1.685341,target',171,0,171,0,312.6833134,,5,312.6756925,312.6833134,312.6833134,0.0136461,314.3610979,np.float64(-0.2833333333333333),np.float64(0.3648148148148148),1,0,0,1.685341,target',2,1,2025-09-30_15h20.33.792,Exp Visual Search,,2025.1.1,59.91137911,2025-09-30 15h20.49.430041 +0530
178,0,178,np.float64(-0.2175925925925926),np.float64(-0.08148148148148149),1,0,0,1.5552953,target',178,0,178,0,325.5977249,,5,325.5879803,325.5977249,325.5977249,0.0105243,327.1433795,np.float64(-0.2175925925925926),np.float64(-0.08148148148148149),1,0,0,1.5552953,target',2,1,2025-09-30_15h20.33.792,Exp Visual Search,,2025.1.1,59.91137911,2025-09-30 15h20.49.430041 +0530
180,0,180,np.float64(0.35555555555555557),np.float64(0.06851851851851852),1,0,0,1.8892748,target',180,0,180,0,328.7625405,,5,328.7538635,328.7625405,328.7625405,0.010657,330.6432219,np.float64(0.35555555555555557),np.float64(0.06851851851851852),1,0,0,1.8892748,target',2,1,2025-09-30_15h20.33.792,Exp Visual Search,,2025.1.1,59.91137911,2025-09-30 15h20.49.430041 +0530
185,0,185,np.float64(-0.2518518518518518),np.float64(-0.11574074074074074),1,0,0,0.9882135,None,185,0,185,0,337.4137935,,5,337.4048256,337.4137935,337.4137935,0.011373,338.3931061,np.float64(-0.2518518518518518),np.float64(-0.11574074074074074),1,0,0,0.9882135,None,2,1,2025-09-30_15h20.33.792,Exp Visual Search,,2025.1.1,59.91137911,2025-09-30 15h20.49.430041 +0530
187,0,187,np.float64(-0.4148148148148148),np.float64(-0.40185185185185185),1,0,0,0.3399283,None,187,0,187,0,339.4953888,,5,339.4862279,339.4953888,339.4953888,0.0097173,339.8262153,np.float64(-0.4148148148148148),np.float64(-0.40185185185185185),1,0,0,0.3399283,None,2,1,2025-09-30_15h20.33.792,Exp Visual Search,,2025.1.1,59.91137911,2025-09-30 15h20.49.430041 +0530
188,0,188,np.float64(-0.4148148148148148),np.float64(-0.40185185185185185),1,0,0,1.6382749,None,188,0,188,0,339.8487037,,5,339.837396,339.8487037,339.8487037,0.0111035,341.4757144,np.float64(-0.4148148148148148),np.float64(-0.40185185185185185),1,0,0,1.6382749,None,2,1,2025-09-30_15h20.33.792,Exp Visual Search,,2025.1.1,59.91137911,2025-09-30 15h20.49.430041 +0530
190,0,190,np.float64(0.4740740740740741),np.float64(-0.15833333333333333),1,0,0,2.1901547,target',190,0,190,0,343.1104254,,5,343.1027829,343.1104254,343.1104254,0.0096993,345.293027,np.float64(0.4740740740740741),np.float64(-0.15833333333333333),1,0,0,2.1901547,target',2,1,2025-09-30_15h20.33.792,Exp Visual Search,,2025.1.1,59.91137911,2025-09-30 15h20.49.430041 +0530
192,0,192,np.float64(-0.15555555555555556),np.float64(-0.13240740740740742),1,0,0,1.286633,target',192,0,192,0,346.9322996,,5,346.9226763,346.9322996,346.9322996,0.0133418,348.2094139,np.float64(-0.15555555555555556),np.float64(-0.13240740740740742),1,0,0,1.286633,target',2,1,2025-09-30_15h20.33.792,Exp Visual Search,,2025.1.1,59.91137911,2025-09-30 15h20.49.430041 +0530
193,0,193,np.float64(-0.42314814814814816),np.float64(0.1638888888888889),1,0,0,1.3845416,target',193,0,193,0,348.233861,,5,348.2235303,348.233861,348.233861,0.013825,349.6081266,np.float64(-0.42314814814814816),np.float64(0.1638888888888889),1,0,0,1.3845416,target',2,1,2025-09-30_15h20.33.792,Exp Visual Search,,2025.1.1,59.91137911,2025-09-30 15h20.49.430041 +0530
195,0,195,np.float64(-0.2574074074074074),np.float64(0.42592592592592593),1,0,0,1.2418006,target',195,0,195,0,351.9115398,,5,351.9004487,351.9115398,351.9115398,0.0246012,353.1423327,np.float64(-0.2574074074074074),np.float64(0.42592592592592593),1,0,0,1.2418006,target',2,1,2025-09-30_15h20.33.792,Exp Visual Search,,2025.1.1,59.91137911,2025-09-30 15h20.49.430041 +0530
196,0,196,np.float64(0.4111111111111111),np.float64(-0.21203703703703702),1,0,0,1.7038647,target',196,0,196,0,353.1634921,,5,353.1543261,353.1634921,353.1634921,0.0118318,354.8582438,np.float64(0.4111111111111111),np.float64(-0.21203703703703702),1,0,0,1.7038647,target',2,1,2025-09-30_15h20.33.792,Exp Visual Search,,2025.1.1,59.91137911,2025-09-30 15h20.49.430041 +0530
197,0,197,np.float64(0.023148148148148147),np.float64(-0.4083333333333333),1,0,0,1.2569333,target',197,0,197,0,354.8769649,,5,354.868562,354.8769649,354.8769649,0.0102285,356.1256054,np.float64(0.023148148148148147),np.float64(-0.4083333333333333),1,0,0,1.2569333,target',2,1,2025-09-30_15h20.33.792,Exp Visual Search,,2025.1.1,59.91137911,2025-09-30 15h20.49.430041 +0530
198,0,198,np.float64(-0.008333333333333333),np.float64(0.1175925925925926),1,0,0,1.2675228,target',198,0,198,0,356.1487353,,5,356.1402312,356.1487353,356.1487353,0.0144046,357.4078361,np.float64(-0.008333333333333333),np.float64(0.1175925925925926),1,0,0,1.2675228,target',2,1,2025-09-30_15h20.33.792,Exp Visual Search,,2025.1.1,59.91137911,2025-09-30 15h20.49.430041 +0530
199,0,199,np.float64(0.04259259259259259),np.float64(-0.20833333333333334),1,0,0,1.1386365,target',199,0,199,0,357.4303365,,5,357.4197136,357.4303365,357.4303365,0.0117712,358.5584197,np.float64(0.04259259259259259),np.float64(-0.20833333333333334),1,0,0,1.1386365,target',2,1,2025-09-30_15h20.33.792,Exp Visual Search,,2025.1.1,59.91137911,2025-09-30 15h20.49.430041 +0530
0,0,0,np.float64(0.25925925925925924),np.float64(-0.17314814814814813),1,0,0,1.9330747,target',0,0,0,0,0.0440465,,10,0.0306972,0.0440465,0.0440465,0.0307184,1.9638323,np.float64(0.25925925925925924),np.float64(-0.17314814814814813),1,0,0,1.9330747,target',2,1,2025-09-30_15h20.33.792,Exp Visual Search,,2025.1.1,59.91137911,2025-09-30 15h20.49.430041 +0530
3,0,3,np.float64(-0.3351851851851852),np.float64(0.4888888888888889),1,0,0,2.7782391,target',3,0,3,0,5.2108821,,10,5.2012778,5.2108821,5.2108821,0.0210844,7.9795769,np.float64(-0.3351851851851852),np.float64(0.4888888888888889),1,0,0,2.7782391,target',2,1,2025-09-30_15h20.33.792,Exp Visual Search,,2025.1.1,59.91137911,2025-09-30 15h20.49.430041 +0530
4,0,4,np.float64(-0.20925925925925926),np.float64(0.20277777777777778),1,0,0,1.364723,target',4,0,4,0,8.007549,,10,7.9978884,8.007549,8.007549,0.0181549,9.3626654,np.float64(-0.20925925925925926),np.float64(0.20277777777777778),1,0,0,1.364723,target',2,1,2025-09-30_15h20.33.792,Exp Visual Search,,2025.1.1,59.91137911,2025-09-30 15h20.49.430041 +0530
9,0,9,np.float64(-0.3814814814814815),np.float64(-0.002777777777777778),1,0,0,1.2728137,target',9,0,9,0,15.6163296,,10,15.606017,15.6163296,15.6163296,0.0268404,16.8789203,np.float64(-0.3814814814814815),np.float64(-0.002777777777777778),1,0,0,1.2728137,target',2,1,2025-09-30_15h20.33.792,Exp Visual Search,,2025.1.1,59.91137911,2025-09-30 15h20.49.430041 +0530
11,0,11,np.float64(-0.275),np.float64(-0.475),1,0,0,2.5444628,target',11,0,11,0,18.2439397,,10,18.2343841,18.2439397,18.2439397,0.0220265,20.7789915,np.float64(-0.275),np.float64(-0.475),1,0,0,2.5444628,target',2,1,2025-09-30_15h20.33.792,Exp Visual Search,,2025.1.1,59.91137911,2025-09-30 15h20.49.430041 +0530
12,0,12,np.float64(0.3037037037037037),np.float64(-0.2074074074074074),1,0,0,1.99427,target',12,0,12,0,20.8102554,,10,20.8004369,20.8102554,20.8102554,0.0210959,22.7947516,np.float64(0.3037037037037037),np.float64(-0.2074074074074074),1,0,0,1.99427,target',2,1,2025-09-30_15h20.33.792,Exp Visual Search,,2025.1.1,59.91137911,2025-09-30 15h20.49.430041 +0530
13,0,13,np.float64(-0.10185185185185185),np.float64(0.016666666666666666),1,0,0,1.1980786,target',13,0,13,0,22.8242258,,10,22.8141387,22.8242258,22.8242258,0.0192729,24.0122717,np.float64(-0.10185185185185185),np.float64(0.016666666666666666),1,0,0,1.1980786,target',2,1,2025-09-30_15h20.33.792,Exp Visual Search,,2025.1.1,59.91137911,2025-09-30 15h20.49.430041 +0530
14,0,14,np.float64(-0.16296296296296298),np.float64(-0.1259259259259259),1,0,0,1.0306423,target',14,0,14,0,24.0417502,,10,24.03127,24.0417502,24.0417502,0.0188657,25.0619707,np.float64(-0.16296296296296298),np.float64(-0.1259259259259259),1,0,0,1.0306423,target',2,1,2025-09-30_15h20.33.792,Exp Visual Search,,2025.1.1,59.91137911,2025-09-30 15h20.49.430041 +0530
16,0,16,np.float64(0.09074074074074075),np.float64(-0.1),1,0,0,2.0466202,None,16,0,16,0,26.1088083,,10,26.0982708,26.1088083,26.1088083,0.0197401,28.1449607,np.float64(0.09074074074074075),np.float64(-0.1),1,0,0,2.0466202,None,2,1,2025-09-30_15h20.33.792,Exp Visual Search,,2025.1.1,59.91137911,2025-09-30 15h20.49.430041 +0530
17,0,17,np.float64(-0.09074074074074075),np.float64(-0.14074074074074075),1,0,0,1.5800393,target',17,0,17,0,28.1749428,,10,28.1648697,28.1749428,28.1749428,0.0197248,29.7449731,np.float64(-0.09074074074074075),np.float64(-0.14074074074074075),1,0,0,1.5800393,target',2,1,2025-09-30_15h20.33.792,Exp Visual Search,,2025.1.1,59.91137911,2025-09-30 15h20.49.430041 +0530
18,0,18,np.float64(0.09166666666666666),np.float64(0.48148148148148145),1,0,0,1.8291652,None,18,0,18,0,29.7748474,,10,29.7653697,29.7748474,29.7748474,0.0201929,31.5946121,np.float64(0.09166666666666666),np.float64(0.48148148148148145),1,0,0,1.8291652,None,2,1,2025-09-30_15h20.33.792,Exp Visual Search,,2025.1.1,59.91137911,2025-09-30 15h20.49.430041 +0530
19,0,19,np.float64(-0.4527777777777778),np.float64(-0.03518518518518519),1,0,0,1.7446858,target',19,0,19,0,31.6315974,,10,31.6170704,31.6315974,31.6315974,0.0222901,33.3618161,np.float64(-0.4527777777777778),np.float64(-0.03518518518518519),1,0,0,1.7446858,target',2,1,2025-09-30_15h20.33.792,Exp Visual Search,,2025.1.1,59.91137911,2025-09-30 15h20.49.430041 +0530
21,0,21,np.float64(-0.4046296296296296),np.float64(0.17777777777777778),1,0,0,2.3126998,target',21,0,21,0,34.7742958,,10,34.7648523,34.7742958,34.7742958,0.0201201,37.0776081,np.float64(-0.4046296296296296),np.float64(0.17777777777777778),1,0,0,2.3126998,target',2,1,2025-09-30_15h20.33.792,Exp Visual Search,,2025.1.1,59.91137911,2025-09-30 15h20.49.430041 +0530
22,0,22,np.float64(-0.43703703703703706),np.float64(-0.30185185185185187),1,0,0,1.9237262,target',22,0,22,0,37.1187099,,10,37.1042893,37.1187099,37.1187099,0.0265702,39.028053,np.float64(-0.43703703703703706),np.float64(-0.30185185185185187),1,0,0,1.9237262,target',2,1,2025-09-30_15h20.33.792,Exp Visual Search,,2025.1.1,59.91137911,2025-09-30 15h20.49.430041 +0530
23,0,23,np.float64(0.010185185185185186),np.float64(-0.3388888888888889),1,0,0,2.6615012,target',23,0,23,0,39.0589321,,10,39.0488909,39.0589321,39.0589321,0.0207123,41.710483,np.float64(0.010185185185185186),np.float64(-0.3388888888888889),1,0,0,2.6615012,target',2,1,2025-09-30_15h20.33.792,Exp Visual Search,,2025.1.1,59.91137911,2025-09-30 15h20.49.430041 +0530
24,0,24,np.float64(0.30648148148148147),np.float64(0.0),1,0,0,1.9810891,target',24,0,24,0,41.7394951,,10,41.7294876,41.7394951,41.7394951,0.0188696,43.710673,np.float64(0.30648148148148147),np.float64(0.0),1,0,0,1.9810891,target',2,1,2025-09-30_15h20.33.792,Exp Visual Search,,2025.1.1,59.91137911,2025-09-30 15h20.49.430041 +0530
25,0,25,np.float64(-0.2759259259259259),np.float64(-0.125),1,0,0,1.3795384,target',25,0,25,0,43.7411383,,10,43.731055,43.7411383,43.7411383,0.0201434,45.1106671,np.float64(-0.2759259259259259),np.float64(-0.125),1,0,0,1.3795384,target',2,1,2025-09-30_15h20.33.792,Exp Visual Search,,2025.1.1,59.91137911,2025-09-30 15h20.49.430041 +0530
28,0,28,np.float64(0.4888888888888889),np.float64(-0.33425925925925926),1,0,0,1.8153266,target',28,0,28,0,48.3550326,,10,48.3451787,48.3550326,48.3550326,0.0184794,50.1605762,np.float64(0.4888888888888889),np.float64(-0.33425925925925926),1,0,0,1.8153266,target',2,1,2025-09-30_15h20.33.792,Exp Visual Search,,2025.1.1,59.91137911,2025-09-30 15h20.49.430041 +0530
29,0,29,np.float64(-0.32407407407407407),np.float64(0.45925925925925926),1,0,0,2.5111598,target',29,0,29,0,50.1915049,,10,50.1821855,50.1915049,50.1915049,0.021392,52.6934004,np.float64(-0.32407407407407407),np.float64(0.45925925925925926),1,0,0,2.5111598,target',2,1,2025-09-30_15h20.33.792,Exp Visual Search,,2025.1.1,59.91137911,2025-09-30 15h20.49.430041 +0530
32,0,32,np.float64(-0.33796296296296297),np.float64(-0.3),1,0,0,2.1121483,target',32,0,32,0,56.0413443,,10,56.0311026,56.0413443,56.0413443,0.0211495,58.1433066,np.float64(-0.33796296296296297),np.float64(-0.3),1,0,0,2.1121483,target',2,1,2025-09-30_15h20.33.792,Exp Visual Search,,2025.1.1,59.91137911,2025-09-30 15h20.49.430041 +0530
34,0,34,np.float64(-0.22870370370370371),np.float64(0.08055555555555556),1,0,0,1.1790887,target',34,0,34,0,59.3090028,,10,59.2968661,59.3090028,59.3090028,0.0203578,60.4760357,np.float64(-0.22870370370370371),np.float64(0.08055555555555556),1,0,0,1.1790887,target',2,1,2025-09-30_15h20.33.792,Exp Visual Search,,2025.1.1,59.91137911,2025-09-30 15h20.49.430041 +0530
35,0,35,np.float64(-0.37407407407407406),np.float64(0.007407407407407408),1,0,0,1.2923239,target',35,0,35,0,60.5106771,,10,60.5009265,60.5106771,60.5106771,0.0246848,61.7933388,np.float64(-0.37407407407407406),np.float64(0.007407407407407408),1,0,0,1.2923239,target',2,1,2025-09-30_15h20.33.792,Exp Visual Search,,2025.1.1,59.91137911,2025-09-30 15h20.49.430041 +0530
36,0,36,np.float64(-0.125),np.float64(-0.36666666666666664),1,0,0,1.259315,target',36,0,36,0,61.8266439,,10,61.817209,61.8266439,61.8266439,0.0236405,63.0765873,np.float64(-0.125),np.float64(-0.36666666666666664),1,0,0,1.259315,target',2,1,2025-09-30_15h20.33.792,Exp Visual Search,,2025.1.1,59.91137911,2025-09-30 15h20.49.430041 +0530
37,0,37,np.float64(-0.3509259259259259),np.float64(-0.3814814814814815),1,0,0,2.0234371,target',37,0,37,0,63.1127586,,10,63.1028255,63.1127586,63.1127586,0.026092,65.1263173,np.float64(-0.3509259259259259),np.float64(-0.3814814814814815),1,0,0,2.0234371,target',2,1,2025-09-30_15h20.33.792,Exp Visual Search,,2025.1.1,59.91137911,2025-09-30 15h20.49.430041 +0530
39,0,39,np.float64(-0.22407407407407406),np.float64(0.08425925925925926),1,0,0,1.7571197,target',39,0,39,0,66.9115968,,10,66.9022292,66.9115968,66.9115968,0.0250604,68.65945,np.float64(-0.22407407407407406),np.float64(0.08425925925925926),1,0,0,1.7571197,target',2,1,2025-09-30_15h20.33.792,Exp Visual Search,,2025.1.1,59.91137911,2025-09-30 15h20.49.430041 +0530
41,0,41,np.float64(-0.2111111111111111),np.float64(0.3861111111111111),1,0,0,3.2286204,target',41,0,41,0,70.0069118,,10,69.9968901,70.0069118,70.0069118,0.0210146,73.2255685,np.float64(-0.2111111111111111),np.float64(0.3861111111111111),1,0,0,3.2286204,target',2,1,2025-09-30_15h20.33.792,Exp Visual Search,,2025.1.1,59.91137911,2025-09-30 15h20.49.430041 +0530
42,0,42,np.float64(-0.30092592592592593),np.float64(0.37222222222222223),1,0,0,1.7959948,target',42,0,42,0,73.2562975,,10,73.2459351,73.2562975,73.2562975,0.0202185,75.0420229,np.float64(-0.30092592592592593),np.float64(0.37222222222222223),1,0,0,1.7959948,target',2,1,2025-09-30_15h20.33.792,Exp Visual Search,,2025.1.1,59.91137911,2025-09-30 15h20.49.430041 +0530
43,0,43,np.float64(0.07222222222222222),np.float64(-0.27037037037037037),1,0,0,2.5097226,target',43,0,43,0,75.0752109,,10,75.0653692,75.0752109,75.0752109,0.0229717,77.5751447,np.float64(0.07222222222222222),np.float64(-0.27037037037037037),1,0,0,2.5097226,target',2,1,2025-09-30_15h20.33.792,Exp Visual Search,,2025.1.1,59.91137911,2025-09-30 15h20.49.430041 +0530
44,0,44,np.float64(-0.4601851851851852),np.float64(-0.3148148148148148),1,0,0,5.8805975,target',44,0,44,0,77.6039109,,10,77.5944224,77.6039109,77.6039109,0.0191477,83.475107,np.float64(-0.4601851851851852),np.float64(-0.3148148148148148),1,0,0,5.8805975,target',2,1,2025-09-30_15h20.33.792,Exp Visual Search,,2025.1.1,59.91137911,2025-09-30 15h20.49.430041 +0530
45,0,45,np.float64(0.12962962962962962),np.float64(-0.14351851851851852),1,0,0,1.5291531,target',45,0,45,0,83.5053524,,10,83.4954899,83.5053524,83.5053524,0.0201842,85.0246981,np.float64(0.12962962962962962),np.float64(-0.14351851851851852),1,0,0,1.5291531,target',2,1,2025-09-30_15h20.33.792,Exp Visual Search,,2025.1.1,59.91137911,2025-09-30 15h20.49.430041 +0530
46,0,46,np.float64(-0.42777777777777776),np.float64(-0.4444444444444444),1,0,0,2.2959391,None,46,0,46,0,85.0553437,,10,85.0459033,85.0553437,85.0553437,0.0210692,87.3418989,np.float64(-0.42777777777777776),np.float64(-0.4444444444444444),1,0,0,2.2959391,None,2,1,2025-09-30_15h20.33.792,Exp Visual Search,,2025.1.1,59.91137911,2025-09-30 15h20.49.430041 +0530
48,0,48,np.float64(-0.3),np.float64(0.11851851851851852),1,0,0,1.4951188,target',48,0,48,0,88.9895831,,10,88.9795211,88.9895831,88.9895831,0.0215054,90.4747223,np.float64(-0.3),np.float64(0.11851851851851852),1,0,0,1.4951188,target',2,1,2025-09-30_15h20.33.792,Exp Visual Search,,2025.1.1,59.91137911,2025-09-30 15h20.49.430041 +0530
49,0,49,np.float64(0.4861111111111111),np.float64(0.225),1,0,0,2.4953006,target',49,0,49,0,90.5054915,,10,90.4958025,90.5054915,90.5054915,0.0208992,92.9911485,np.float64(0.4861111111111111),np.float64(0.225),1,0,0,2.4953006,target',2,1,2025-09-30_15h20.33.792,Exp Visual Search,,2025.1.1,59.91137911,2025-09-30 15h20.49.430041 +0530
50,0,50,np.float64(0.4166666666666667),np.float64(0.07777777777777778),1,0,0,1.4960682,target',50,0,50,0,93.0209501,,10,93.0113124,93.0209501,93.0209501,0.02003,94.5074325,np.float64(0.4166666666666667),np.float64(0.07777777777777778),1,0,0,1.4960682,target',2,1,2025-09-30_15h20.33.792,Exp Visual Search,,2025.1.1,59.91137911,2025-09-30 15h20.49.430041 +0530
51,0,51,np.float64(0.4546296296296296),np.float64(0.3611111111111111),1,0,0,1.4325668,target',51,0,51,0,94.534571,,10,94.525079,94.534571,94.534571,0.0175316,95.9577033,np.float64(0.4546296296296296),np.float64(0.3611111111111111),1,0,0,1.4325668,target',2,1,2025-09-30_15h20.33.792,Exp Visual Search,,2025.1.1,59.91137911,2025-09-30 15h20.49.430041 +0530
52,0,52,np.float64(0.4166666666666667),np.float64(-0.03518518518518519),1,0,0,1.2446962,target',52,0,52,0,95.9910347,,10,95.9796986,95.9910347,95.9910347,0.0218692,97.2244881,np.float64(0.4166666666666667),np.float64(-0.03518518518518519),1,0,0,1.2446962,target',2,1,2025-09-30_15h20.33.792,Exp Visual Search,,2025.1.1,59.91137911,2025-09-30 15h20.49.430041 +0530
53,0,53,np.float64(0.03888888888888889),np.float64(-0.4462962962962963),1,0,0,2.3957339,None,53,0,53,0,97.2578378,,10,97.2448047,97.2578378,97.2578378,0.0200748,99.6405958,np.float64(0.03888888888888889),np.float64(-0.4462962962962963),1,0,0,2.3957339,None,2,1,2025-09-30_15h20.33.792,Exp Visual Search,,2025.1.1,59.91137911,2025-09-30 15h20.49.430041 +0530
54,0,54,np.float64(0.004629629629629629),np.float64(0.2064814814814815),1,0,0,1.3799172,target',54,0,54,0,99.6710313,,10,99.6608264,99.6710313,99.6710313,0.0200083,101.0408318,np.float64(0.004629629629629629),np.float64(0.2064814814814815),1,0,0,1.3799172,target',2,1,2025-09-30_15h20.33.792,Exp Visual Search,,2025.1.1,59.91137911,2025-09-30 15h20.49.430041 +0530
56,0,56,np.float64(-0.48055555555555557),np.float64(0.07962962962962963),1,0,0,1.7815187,target',56,0,56,0,102.720698,,10,102.7090158,102.720698,102.720698,0.0184633,104.4905903,np.float64(-0.48055555555555557),np.float64(0.07962962962962963),1,0,0,1.7815187,target',2,1,2025-09-30_15h20.33.792,Exp Visual Search,,2025.1.1,59.91137911,2025-09-30 15h20.49.430041 +0530
57,0,57,np.float64(0.325),np.float64(-0.2175925925925926),1,0,0,1.4793767,target',57,0,57,0,104.524399,,10,104.5109061,104.524399,104.524399,0.0201943,105.9903405,np.float64(0.325),np.float64(-0.2175925925925926),1,0,0,1.4793767,target',2,1,2025-09-30_15h20.33.792,Exp Visual Search,,2025.1.1,59.91137911,2025-09-30 15h20.49.430041 +0530
59,0,59,np.float64(0.2111111111111111),np.float64(-0.22407407407407406),1,0,0,1.0450086,target',59,0,59,0,107.1921759,,10,107.1786899,107.1921759,107.1921759,0.0211981,108.2237987,np.float64(0.2111111111111111),np.float64(-0.22407407407407406),1,0,0,1.0450086,target',2,1,2025-09-30_15h20.33.792,Exp Visual Search,,2025.1.1,59.91137911,2025-09-30 15h20.49.430041 +0530
60,0,60,np.float64(-0.36574074074074076),np.float64(0.017592592592592594),1,0,0,1.2600895,target',60,0,60,0,108.2604803,,10,108.2463065,108.2604803,108.2604803,0.0222675,109.506448,np.float64(-0.36574074074074076),np.float64(0.017592592592592594),1,0,0,1.2600895,target',2,1,2025-09-30_15h20.33.792,Exp Visual Search,,2025.1.1,59.91137911,2025-09-30 15h20.49.430041 +0530
65,0,65,np.float64(-0.1638888888888889),np.float64(-0.14629629629629629),1,0,0,2.1134736,None,65,0,65,0,115.306134,,10,115.2923546,115.306134,115.306134,0.0192981,117.40593,np.float64(-0.1638888888888889),np.float64(-0.14629629629629629),1,0,0,2.1134736,None,2,1,2025-09-30_15h20.33.792,Exp Visual Search,,2025.1.1,59.91137911,2025-09-30 15h20.49.430041 +0530
66,0,66,np.float64(0.24351851851851852),np.float64(0.3638888888888889),1,0,0,1.5784822,target',66,0,66,0,117.438995,,10,117.4278863,117.438995,117.438995,0.0218124,119.0064244,np.float64(0.24351851851851852),np.float64(0.3638888888888889),1,0,0,1.5784822,target',2,1,2025-09-30_15h20.33.792,Exp Visual Search,,2025.1.1,59.91137911,2025-09-30 15h20.49.430041 +0530
68,0,68,np.float64(0.18981481481481483),np.float64(0.1824074074074074),1,0,0,1.1151116,target',68,0,68,0,121.4380937,,10,121.424333,121.4380937,121.4380937,0.0185633,122.5395315,np.float64(0.18981481481481483),np.float64(0.1824074074074074),1,0,0,1.1151116,target',2,1,2025-09-30_15h20.33.792,Exp Visual Search,,2025.1.1,59.91137911,2025-09-30 15h20.49.430041 +0530
70,0,70,np.float64(-0.3675925925925926),np.float64(0.3685185185185185),1,0,0,4.3966003,target',70,0,70,0,124.4528937,,10,124.4422452,124.4528937,124.4528937,0.0195135,128.8389162,np.float64(-0.3675925925925926),np.float64(0.3685185185185185),1,0,0,4.3966003,target',2,1,2025-09-30_15h20.33.792,Exp Visual Search,,2025.1.1,59.91137911,2025-09-30 15h20.49.430041 +0530
71,0,71,np.float64(-0.12222222222222222),np.float64(-0.07407407407407407),1,0,0,1.7117849,target',71,0,71,0,128.8706479,,10,128.8602942,128.8706479,128.8706479,0.0212012,130.5721348,np.float64(-0.12222222222222222),np.float64(-0.07407407407407407),1,0,0,1.7117849,target',2,1,2025-09-30_15h20.33.792,Exp Visual Search,,2025.1.1,59.91137911,2025-09-30 15h20.49.430041 +0530
78,0,78,np.float64(-0.34074074074074073),np.float64(-0.3925925925925926),1,0,0,1.764335,target',78,0,78,0,140.4557701,,10,140.440155,140.4557701,140.4557701,0.0185985,142.2045413,np.float64(-0.34074074074074073),np.float64(-0.3925925925925926),1,0,0,1.764335,target',2,1,2025-09-30_15h20.33.792,Exp Visual Search,,2025.1.1,59.91137911,2025-09-30 15h20.49.430041 +0530
79,0,79,np.float64(-0.2861111111111111),np.float64(-0.4638888888888889),1,0,,1.0818387,target',79,0,79,0,142.2361199,,10,142.2228844,142.2361199,142.2361199,0.0182118,143.3047944,np.float64(-0.2861111111111111),np.float64(-0.4638888888888889),1,0,0,1.0818387,target',2,1,2025-09-30_15h20.33.792,Exp Visual Search,,2025.1.1,59.91137911,2025-09-30 15h20.49.430041 +0530
87,0,87,np.float64(-0.2518518518518518),np.float64(-0.362962962962963),1,0,0,1.7449348,target',87,0,87,0,157.0684925,,10,157.0588961,157.0684925,157.0684925,0.0217359,158.8038834,np.float64(-0.2518518518518518),np.float64(-0.362962962962963),1,0,0,1.7449348,target',2,1,2025-09-30_15h20.33.792,Exp Visual Search,,2025.1.1,59.91137911,2025-09-30 15h20.49.430041 +0530
88,0,88,np.float64(-0.024074074074074074),np.float64(0.0787037037037037),1,0,0,3.2459972,target',88,0,88,0,158.8348898,,10,158.8251288,158.8348898,158.8348898,0.0211139,162.0711942,np.float64(-0.024074074074074074),np.float64(0.0787037037037037),1,0,0,3.2459972,target',2,1,2025-09-30_15h20.33.792,Exp Visual Search,,2025.1.1,59.91137911,2025-09-30 15h20.49.430041 +0530
89,0,89,np.float64(0.15925925925925927),np.float64(0.3194444444444444),1,0,0,2.6289194,target',89,0,89,0,162.101567,,10,162.0911335,162.101567,162.101567,0.0197859,164.7201135,np.float64(0.15925925925925927),np.float64(0.3194444444444444),1,0,0,2.6289194,target',2,1,2025-09-30_15h20.33.792,Exp Visual Search,,2025.1.1,59.91137911,2025-09-30 15h20.49.430041 +0530
93,0,93,np.float64(0.08148148148148149),np.float64(-0.30092592592592593),1,0,0,1.0299523,target',93,0,93,0,169.7191145,,10,169.7058808,169.7191145,169.7191145,0.0194241,170.7359056,np.float64(0.08148148148148149),np.float64(-0.30092592592592593),1,0,0,1.0299523,target',2,1,2025-09-30_15h20.33.792,Exp Visual Search,,2025.1.1,59.91137911,2025-09-30 15h20.49.430041 +0530
95,0,95,np.float64(0.012962962962962963),np.float64(-0.13425925925925927),1,0,0,1.3280113,target',95,0,95,0,172.1743979,,10,172.1583263,172.1743979,172.1743979,0.022164,173.48642,np.float64(0.012962962962962963),np.float64(-0.13425925925925927),1,0,0,1.3280113,target',2,1,2025-09-30_15h20.33.792,Exp Visual Search,,2025.1.1,59.91137911,2025-09-30 15h20.49.430041 +0530
96,0,96,np.float64(-0.1574074074074074),np.float64(-0.4759259259259259),1,0,0,1.7950858,target',96,0,96,0,173.5210608,,10,173.5072155,173.5210608,173.5210608,0.0205842,175.30235,np.float64(-0.1574074074074074),np.float64(-0.4759259259259259),1,0,0,1.7950858,target',2,1,2025-09-30_15h20.33.792,Exp Visual Search,,2025.1.1,59.91137911,2025-09-30 15h20.49.430041 +0530
97,0,97,np.float64(0.1712962962962963),np.float64(-0.4648148148148148),1,0,0,1.2992007,target',97,0,97,0,175.3330949,,10,175.3202982,175.3330949,175.3330949,0.0178362,176.6195842,np.float64(0.1712962962962963),np.float64(-0.4648148148148148),1,0,0,1.2992007,target',2,1,2025-09-30_15h20.33.792,Exp Visual Search,,2025.1.1,59.91137911,2025-09-30 15h20.49.430041 +0530
99,0,99,np.float64(0.12037037037037036),np.float64(0.01574074074074074),1,0,0,1.2969135,target',99,0,99,0,178.3322369,,10,178.3223048,178.3322369,178.3322369,0.019391,179.6192944,np.float64(0.12037037037037036),np.float64(0.01574074074074074),1,0,0,1.2969135,target',2,1,2025-09-30_15h20.33.792,Exp Visual Search,,2025.1.1,59.91137911,2025-09-30 15h20.49.430041 +0530
100,0,100,np.float64(-0.25833333333333336),np.float64(-0.2851851851851852),1,0,0,2.2603359,target',100,0,100,0,179.6571267,,10,179.6420028,179.6571267,179.6571267,0.0224771,181.9023926,np.float64(-0.25833333333333336),np.float64(-0.2851851851851852),1,0,0,2.2603359,target',2,1,2025-09-30_15h20.33.792,Exp Visual Search,,2025.1.1,59.91137911,2025-09-30 15h20.49.430041 +0530
101,0,101,np.float64(-0.20092592592592592),np.float64(0.06111111111111111),1,0,0,1.2963744,target',101,0,101,0,181.9362135,,10,181.9226734,181.9362135,181.9362135,0.020155,183.2191521,np.float64(-0.20092592592592592),np.float64(0.06111111111111111),1,0,0,1.2963744,target',2,1,2025-09-30_15h20.33.792,Exp Visual Search,,2025.1.1,59.91137911,2025-09-30 15h20.49.430041 +0530
102,0,102,np.float64(0.31296296296296294),np.float64(-0.32314814814814813),1,0,0,1.4784974,target',102,0,102,0,183.2502841,,10,183.2403139,183.2502841,183.2502841,0.0209021,184.7188682,np.float64(0.31296296296296294),np.float64(-0.32314814814814813),1,0,0,1.4784974,target',2,1,2025-09-30_15h20.33.792,Exp Visual Search,,2025.1.1,59.91137911,2025-09-30 15h20.49.430041 +0530
104,0,104,np.float64(0.225),np.float64(0.16296296296296298),1,0,0,1.1127548,target',104,0,104,0,186.1368598,,10,186.1221291,186.1368598,186.1368598,0.0195855,187.234947,np.float64(0.225),np.float64(0.16296296296296298),1,0,0,1.1127548,target',2,1,2025-09-30_15h20.33.792,Exp Visual Search,,2025.1.1,59.91137911,2025-09-30 15h20.49.430041 +0530
107,0,107,np.float64(-0.3537037037037037),np.float64(0.18796296296296297),1,0,0,1.3979271,target',107,0,107,0,189.6664254,,10,189.6538206,189.6664254,189.6664254,0.0186631,191.0518094,np.float64(-0.3537037037037037),np.float64(0.18796296296296297),1,0,0,1.3979271,target',2,1,2025-09-30_15h20.33.792,Exp Visual Search,,2025.1.1,59.91137911,2025-09-30 15h20.49.430041 +0530
110,0,110,np.float64(0.3333333333333333),np.float64(0.4),1,0,0,2.2260441,None,110,0,110,0,193.5193018,,10,193.5083115,193.5193018,193.5193018,0.0218665,195.734403,np.float64(0.3333333333333333),np.float64(0.4),1,0,0,2.2260441,None,2,1,2025-09-30_15h20.33.792,Exp Visual Search,,2025.1.1,59.91137911,2025-09-30 15h20.49.430041 +0530
112,0,112,np.float64(-0.12407407407407407),np.float64(0.28703703703703703),1,0,0,1.4196696,target',112,0,112,0,197.3426526,,10,197.3318171,197.3426526,197.3426526,0.0457937,198.7515844,np.float64(-0.12407407407407407),np.float64(0.28703703703703703),1,0,0,1.4196696,target',2,1,2025-09-30_15h20.33.792,Exp Visual Search,,2025.1.1,59.91137911,2025-09-30 15h20.49.430041 +0530
113,0,113,np.float64(-0.42592592592592593),np.float64(-0.30833333333333335),1,0,0,1.637292,target',113,0,113,0,198.7912031,,10,198.780736,198.7912031,198.7912031,0.0288882,200.4180875,np.float64(-0.42592592592592593),np.float64(-0.30833333333333335),1,0,0,1.637292,target',2,1,2025-09-30_15h20.33.792,Exp Visual Search,,2025.1.1,59.91137911,2025-09-30 15h20.49.430041 +0530
116,0,116,np.float64(-0.2898148148148148),np.float64(-0.43425925925925923),1,0,0,2.0946446,target',116,0,116,0,203.1834564,,10,203.1728304,203.1834564,203.1834564,0.0218609,205.2675272,np.float64(-0.2898148148148148),np.float64(-0.43425925925925923),1,0,0,2.0946446,target',2,1,2025-09-30_15h20.33.792,Exp Visual Search,,2025.1.1,59.91137911,2025-09-30 15h20.49.430041 +0530
117,0,117,np.float64(0.3194444444444444),np.float64(-0.05),1,0,0,2.1547447,target',117,0,117,0,205.3109054,,10,205.2957655,205.3109054,205.3109054,0.0281162,207.4505562,np.float64(0.3194444444444444),np.float64(-0.05),1,0,0,2.1547447,target',2,1,2025-09-30_15h20.33.792,Exp Visual Search,,2025.1.1,59.91137911,2025-09-30 15h20.49.430041 +0530
118,0,118,np.float64(0.4064814814814815),np.float64(0.03611111111111111),1,0,0,1.115489,target',118,0,118,0,207.4824111,,10,207.4687529,207.4824111,207.4824111,0.0180824,208.5843099,np.float64(0.4064814814814815),np.float64(0.03611111111111111),1,0,0,1.115489,target',2,1,2025-09-30_15h20.33.792,Exp Visual Search,,2025.1.1,59.91137911,2025-09-30 15h20.49.430041 +0530
119,0,119,np.float64(-0.023148148148148147),np.float64(0.38425925925925924),1,0,0,1.7798407,target',119,0,119,0,208.6186636,,10,208.6041631,208.6186636,208.6186636,0.0197037,210.3840509,np.float64(-0.023148148148148147),np.float64(0.38425925925925924),1,0,0,1.7798407,target',2,1,2025-09-30_15h20.33.792,Exp Visual Search,,2025.1.1,59.91137911,2025-09-30 15h20.49.430041 +0530
120,0,120,np.float64(-0.47314814814814815),np.float64(0.32407407407407407),1,0,0,1.9314212,target',120,0,120,0,210.4138226,,10,210.4025508,210.4138226,210.4138226,0.0184037,212.3340371,np.float64(-0.47314814814814815),np.float64(0.32407407407407407),1,0,0,1.9314212,target',2,1,2025-09-30_15h20.33.792,Exp Visual Search,,2025.1.1,59.91137911,2025-09-30 15h20.49.430041 +0530
121,0,121,np.float64(0.2064814814814815),np.float64(-0.08981481481481482),1,0,0,2.228861,target',121,0,121,0,212.3680016,,10,212.3545511,212.3680016,212.3680016,0.0203386,214.5835019,np.float64(0.2064814814814815),np.float64(-0.08981481481481482),1,0,0,2.228861,target',2,1,2025-09-30_15h20.33.792,Exp Visual Search,,2025.1.1,59.91137911,2025-09-30 15h20.49.430041 +0530
123,0,123,np.float64(-0.4722222222222222),np.float64(0.4462962962962963),1,0,0,1.5812083,target',123,0,123,0,216.6988284,,10,216.6853736,216.6988284,216.6988284,0.0181832,218.2666323,np.float64(-0.4722222222222222),np.float64(0.4462962962962963),1,0,0,1.5812083,target',2,1,2025-09-30_15h20.33.792,Exp Visual Search,,2025.1.1,59.91137911,2025-09-30 15h20.49.430041 +0530
125,0,125,np.float64(-0.32314814814814813),np.float64(0.5),1,0,0,2.2943884,target',125,0,125,0,220.501551,,10,220.4886381,220.501551,220.501551,0.0205354,222.7830811,np.float64(-0.32314814814814813),np.float64(0.5),1,0,0,2.2943884,target',2,1,2025-09-30_15h20.33.792,Exp Visual Search,,2025.1.1,59.91137911,2025-09-30 15h20.49.430041 +0530
126,0,126,np.float64(0.1787037037037037),np.float64(-0.36944444444444446),1,0,0,2.0302669,target',126,0,126,0,222.8135111,,10,222.8024979,222.8135111,222.8135111,0.0192957,224.8328753,np.float64(0.1787037037037037),np.float64(-0.36944444444444446),1,0,0,2.0302669,target',2,1,2025-09-30_15h20.33.792,Exp Visual Search,,2025.1.1,59.91137911,2025-09-30 15h20.49.430041 +0530
128,0,128,np.float64(0.05185185185185185),np.float64(0.11944444444444445),1,0,0,1.5475933,target',128,0,128,0,226.3961221,,10,226.3849191,226.3961221,226.3961221,0.0185399,227.9325638,np.float64(0.05185185185185185),np.float64(0.11944444444444445),1,0,0,1.5475933,target',2,1,2025-09-30_15h20.33.792,Exp Visual Search,,2025.1.1,59.91137911,2025-09-30 15h20.49.430041 +0530
132,0,132,np.float64(-0.017592592592592594),np.float64(0.3416666666666667),1,0,0,3.7261814,target',132,0,132,0,233.1540186,,10,233.1399016,233.1540186,233.1540186,0.0234587,236.8661692,np.float64(-0.017592592592592594),np.float64(0.3416666666666667),1,0,0,3.7261814,target',2,1,2025-09-30_15h20.33.792,Exp Visual Search,,2025.1.1,59.91137911,2025-09-30 15h20.49.430041 +0530
133,0,133,np.float64(-0.44351851851851853),np.float64(-0.2861111111111111),1,0,0,3.3282218,target',133,0,133,0,236.8970538,,10,236.8873287,236.8970538,236.8970538,0.0209531,240.2156237,np.float64(-0.44351851851851853),np.float64(-0.2861111111111111),1,0,0,3.3282218,target',2,1,2025-09-30_15h20.33.792,Exp Visual Search,,2025.1.1,59.91137911,2025-09-30 15h20.49.430041 +0530
136,0,136,np.float64(-0.41944444444444445),np.float64(0.35),1,0,0,2.1089479,target',136,0,136,0,243.8050982,,10,243.7889952,243.8050982,243.8050982,0.0237,245.8979922,np.float64(-0.41944444444444445),np.float64(0.35),1,0,0,2.1089479,target',2,1,2025-09-30_15h20.33.792,Exp Visual Search,,2025.1.1,59.91137911,2025-09-30 15h20.49.430041 +0530
138,0,138,np.float64(0.10648148148148148),np.float64(0.06388888888888888),1,0,0,2.1241548,target',138,0,138,0,247.7357503,,10,247.7242834,247.7357503,247.7357503,0.025625,249.8484929,np.float64(0.10648148148148148),np.float64(0.06388888888888888),1,0,0,2.1241548,target',2,1,2025-09-30_15h20.33.792,Exp Visual Search,,2025.1.1,59.91137911,2025-09-30 15h20.49.430041 +0530
140,0,140,np.float64(0.3824074074074074),np.float64(-0.22407407407407406),1,0,0,3.1639882,target',140,0,140,0,251.2440141,,10,251.2344657,251.2440141,251.2440141,0.0191196,254.3985552,np.float64(0.3824074074074074),np.float64(-0.22407407407407406),1,0,0,3.1639882,target',2,1,2025-09-30_15h20.33.792,Exp Visual Search,,2025.1.1,59.91137911,2025-09-30 15h20.49.430041 +0530
143,0,143,np.float64(-0.4361111111111111),np.float64(0.2361111111111111),1,0,0,2.0775874,target',143,0,143,0,257.9659243,,10,257.9529445,257.9659243,257.9659243,0.0214767,260.0305903,np.float64(-0.4361111111111111),np.float64(0.2361111111111111),1,0,0,2.0775874,target',2,1,2025-09-30_15h20.33.792,Exp Visual Search,,2025.1.1,59.91137911,2025-09-30 15h20.49.430041 +0530
145,0,145,np.float64(-0.2675925925925926),np.float64(-0.4648148148148148),1,0,0,2.7007726,target',145,0,145,0,263.1120059,,10,263.0969923,263.1120059,263.1120059,0.0320951,265.7978643,np.float64(-0.2675925925925926),np.float64(-0.4648148148148148),1,0,0,2.7007726,target',2,1,2025-09-30_15h20.33.792,Exp Visual Search,,2025.1.1,59.91137911,2025-09-30 15h20.49.430041 +0530
148,0,148,np.float64(0.062037037037037036),np.float64(-0.032407407407407406),1,0,0,1.7956552,target',148,0,148,0,269.3120405,,10,269.3014326,269.3120405,269.3120405,0.0204169,271.0971495,np.float64(0.062037037037037036),np.float64(-0.032407407407407406),1,0,0,1.7956552,target',2,1,2025-09-30_15h20.33.792,Exp Visual Search,,2025.1.1,59.91137911,2025-09-30 15h20.49.430041 +0530
150,0,150,np.float64(0.25092592592592594),np.float64(0.4046296296296296),1,0,0,1.7920337,target',150,0,150,0,272.936952,,10,272.9210141,272.936952,272.936952,0.023013,274.7131098,np.float64(0.25092592592592594),np.float64(0.4046296296296296),1,0,0,1.7920337,target',2,1,2025-09-30_15h20.33.792,Exp Visual Search,,2025.1.1,59.91137911,2025-09-30 15h20.49.430041 +0530
152,0,152,np.float64(0.37407407407407406),np.float64(-0.46296296296296297),1,0,0,4.2121926,target',152,0,152,0,276.2607745,,10,276.2508669,276.2607745,276.2607745,0.0206758,280.463113,np.float64(0.37407407407407406),np.float64(-0.46296296296296297),1,0,0,4.2121926,target',2,1,2025-09-30_15h20.33.792,Exp Visual Search,,2025.1.1,59.91137911,2025-09-30 15h20.49.430041 +0530
153,0,153,np.float64(-0.2898148148148148),np.float64(-0.22962962962962963),1,0,0,2.496621,target',153,0,153,0,280.4971326,,10,280.4830648,280.4971326,280.4971326,0.0198279,282.9797578,np.float64(-0.2898148148148148),np.float64(-0.22962962962962963),1,0,0,2.496621,target',2,1,2025-09-30_15h20.33.792,Exp Visual Search,,2025.1.1,59.91137911,2025-09-30 15h20.49.430041 +0530
154,0,154,np.float64(0.34444444444444444),np.float64(-0.29907407407407405),1,0,0,3.6284437,target',154,0,154,0,283.0119509,,10,283.0009321,283.0119509,283.0119509,0.0210018,286.6294331,np.float64(0.34444444444444444),np.float64(-0.29907407407407405),1,0,0,3.6284437,target',2,1,2025-09-30_15h20.33.792,Exp Visual Search,,2025.1.1,59.91137911,2025-09-30 15h20.49.430041 +0530
160,0,160,np.float64(-0.12129629629629629),np.float64(-0.15),1,0,0,1.1961397,target',160,0,160,0,294.729197,,10,294.7157635,294.729197,294.729197,0.0200511,295.9119855,np.float64(-0.12129629629629629),np.float64(-0.15),1,0,0,1.1961397,target',2,1,2025-09-30_15h20.33.792,Exp Visual Search,,2025.1.1,59.91137911,2025-09-30 15h20.49.430041 +0530
161,0,161,np.float64(-0.28888888888888886),np.float64(0.33240740740740743),1,0,0,1.9280523,target',161,0,161,0,295.9470566,,10,295.9336898,295.9470566,295.9470566,0.0215137,297.8617897,np.float64(-0.28888888888888886),np.float64(0.33240740740740743),1,0,0,1.9280523,target',2,1,2025-09-30_15h20.33.792,Exp Visual Search,,2025.1.1,59.91137911,2025-09-30 15h20.49.430041 +0530
163,0,163,np.float64(0.023148148148148147),np.float64(-0.2564814814814815),1,0,0,1.7764679,target',163,0,163,0,299.231757,,10,299.2183465,299.231757,299.231757,0.02283,300.9948743,np.float64(0.023148148148148147),np.float64(-0.2564814814814815),1,0,0,1.7764679,target',2,1,2025-09-30_15h20.33.792,Exp Visual Search,,2025.1.1,59.91137911,2025-09-30 15h20.49.430041 +0530
166,0,166,np.float64(0.023148148148148147),np.float64(0.15925925925925927),1,0,0,1.509226,target',166,0,166,0,304.3834949,,10,304.369051,304.3834949,304.3834949,0.023461,305.8783343,np.float64(0.023148148148148147),np.float64(0.15925925925925927),1,0,0,1.509226,target',2,1,2025-09-30_15h20.33.792,Exp Visual Search,,2025.1.1,59.91137911,2025-09-30 15h20.49.430041 +0530
167,0,167,np.float64(-0.5157407407407407),np.float64(-0.011111111111111112),1,0,0,1.4074953,target',167,0,167,0,305.9172248,,10,305.9043681,305.9172248,305.9172248,0.0259135,307.3119268,np.float64(-0.5157407407407407),np.float64(-0.011111111111111112),1,0,0,1.4074953,target',2,1,2025-09-30_15h20.33.792,Exp Visual Search,,2025.1.1,59.91137911,2025-09-30 15h20.49.430041 +0530
168,0,168,np.float64(-0.19907407407407407),np.float64(0.1787037037037037),1,0,0,1.3272751,target',168,0,168,0,307.3499724,,10,307.3343017,307.3499724,307.3499724,0.0222272,308.6616661,np.float64(-0.19907407407407407),np.float64(0.1787037037037037),1,0,0,1.3272751,target',2,1,2025-09-30_15h20.33.792,Exp Visual Search,,2025.1.1,59.91137911,2025-09-30 15h20.49.430041 +0530
169,0,169,np.float64(0.43703703703703706),np.float64(0.26944444444444443),1,0,0,2.0794758,target',169,0,169,0,308.6949425,,10,308.6823336,308.6949425,308.6949425,0.0204471,310.7619195,np.float64(0.43703703703703706),np.float64(0.26944444444444443),1,0,0,2.0794758,target',2,1,2025-09-30_15h20.33.792,Exp Visual Search,,2025.1.1,59.91137911,2025-09-30 15h20.49.430041 +0530
170,0,170,np.float64(-0.44351851851851853),np.float64(-0.262037037037037),1,0,0,1.8769316,target',170,0,170,0,310.797478,,10,310.7847624,310.797478,310.797478,0.0225646,312.6617931,np.float64(-0.44351851851851853),np.float64(-0.262037037037037),1,0,0,1.8769316,target',2,1,2025-09-30_15h20.33.792,Exp Visual Search,,2025.1.1,59.91137911,2025-09-30 15h20.49.430041 +0530
172,0,172,np.float64(0.18055555555555555),np.float64(0.20833333333333334),1,0,0,1.5935921,target',172,0,172,0,314.3957803,,10,314.383696,314.3957803,314.3957803,0.0224872,315.9773502,np.float64(0.18055555555555555),np.float64(0.20833333333333334),1,0,0,1.5935921,target',2,1,2025-09-30_15h20.33.792,Exp Visual Search,,2025.1.1,59.91137911,2025-09-30 15h20.49.430041 +0530
173,0,173,np.float64(-0.39814814814814814),np.float64(-0.3101851851851852),1,0,0,2.378472,target',173,0,173,0,316.0118359,,10,315.9992735,316.0118359,316.0118359,0.0218064,318.377803,np.float64(-0.39814814814814814),np.float64(-0.3101851851851852),1,0,0,2.378472,target',2,1,2025-09-30_15h20.33.792,Exp Visual Search,,2025.1.1,59.91137911,2025-09-30 15h20.49.430041 +0530
174,0,174,np.float64(-0.375),np.float64(-0.4638888888888889),1,0,0,1.3053369,target',174,0,174,0,318.416899,,10,318.4049227,318.416899,318.416899,0.0269665,319.7103345,np.float64(-0.375),np.float64(-0.4638888888888889),1,0,0,1.3053369,target',2,1,2025-09-30_15h20.33.792,Exp Visual Search,,2025.1.1,59.91137911,2025-09-30 15h20.49.430041 +0530
175,0,175,np.float64(-0.48055555555555557),np.float64(0.2611111111111111),1,0,0,1.5260332,target',175,0,175,0,319.7454018,,10,319.7345024,319.7454018,319.7454018,0.0239924,321.2606135,np.float64(-0.48055555555555557),np.float64(0.2611111111111111),1,0,0,1.5260332,target',2,1,2025-09-30_15h20.33.792,Exp Visual Search,,2025.1.1,59.91137911,2025-09-30 15h20.49.430041 +0530
176,0,176,np.float64(-0.41574074074074074),np.float64(-0.03425925925925926),1,0,0,1.3630045,target',176,0,176,0,321.2953397,,10,321.2807979,321.2953397,321.2953397,0.0200184,322.6438564,np.float64(-0.41574074074074074),np.float64(-0.03425925925925926),1,0,0,1.3630045,target',2,1,2025-09-30_15h20.33.792,Exp Visual Search,,2025.1.1,59.91137911,2025-09-30 15h20.49.430041 +0530
177,0,177,np.float64(0.44537037037037036),np.float64(-0.3111111111111111),1,0,0,2.9146169,target',177,0,177,0,322.6774617,,10,322.6625532,322.6774617,322.6774617,0.0185805,325.5772566,np.float64(0.44537037037037036),np.float64(-0.3111111111111111),1,0,0,2.9146169,target',2,1,2025-09-30_15h20.33.792,Exp Visual Search,,2025.1.1,59.91137911,2025-09-30 15h20.49.430041 +0530
179,0,179,np.float64(0.1935185185185185),np.float64(-0.2898148148148148),1,0,0,1.5794791,target',179,0,179,0,327.1771709,,10,327.1635412,327.1771709,327.1771709,0.0199705,328.743083,np.float64(0.1935185185185185),np.float64(-0.2898148148148148),1,0,0,1.5794791,target',2,1,2025-09-30_15h20.33.792,Exp Visual Search,,2025.1.1,59.91137911,2025-09-30 15h20.49.430041 +0530
181,0,181,np.float64(0.10833333333333334),np.float64(-0.31666666666666665),1,0,0,2.6778277,target',181,0,181,0,330.6775212,,10,330.6649279,330.6775212,330.6775212,0.0215512,333.3428282,np.float64(0.10833333333333334),np.float64(-0.31666666666666665),1,0,0,2.6778277,target',2,1,2025-09-30_15h20.33.792,Exp Visual Search,,2025.1.1,59.91137911,2025-09-30 15h20.49.430041 +0530
182,0,182,np.float64(-0.1527777777777778),np.float64(0.03518518518518519),1,0,0,1.8953619,target',182,0,182,0,333.3803053,,10,333.3645164,333.3803053,333.3803053,0.0215641,335.2599488,np.float64(-0.1527777777777778),np.float64(0.03518518518518519),1,0,0,1.8953619,target',2,1,2025-09-30_15h20.33.792,Exp Visual Search,,2025.1.1,59.91137911,2025-09-30 15h20.49.430041 +0530
183,0,183,np.float64(-0.4564814814814815),np.float64(-0.12314814814814815),1,0,0,1.5301344,target',183,0,183,0,335.2923454,,10,335.279546,335.2923454,335.2923454,0.0194671,336.8097406,np.float64(-0.4564814814814815),np.float64(-0.12314814814814815),1,0,0,1.5301344,target',2,1,2025-09-30_15h20.33.792,Exp Visual Search,,2025.1.1,59.91137911,2025-09-30 15h20.49.430041 +0530
184,0,184,np.float64(-0.4564814814814815),np.float64(-0.12314814814814815),1,0,0,0.5644047,target',184,0,184,0,336.8430503,,10,336.8287797,336.8430503,336.8430503,0.018909,337.393282,np.float64(-0.4564814814814815),np.float64(-0.12314814814814815),1,0,0,0.5644047,target',2,1,2025-09-30_15h20.33.792,Exp Visual Search,,2025.1.1,59.91137911,2025-09-30 15h20.49.430041 +0530
186,0,186,np.float64(-0.4148148148148148),np.float64(-0.40185185185185185),1,0,0,1.0613443,None,186,0,186,0,338.4280672,,10,338.4148888,338.4280672,338.4280672,0.0216883,339.4763137,np.float64(-0.4148148148148148),np.float64(-0.40185185185185185),1,0,0,1.0613443,None,2,1,2025-09-30_15h20.33.792,Exp Visual Search,,2025.1.1,59.91137911,2025-09-30 15h20.49.430041 +0530
189,0,189,np.float64(0.1527777777777778),np.float64(0.40925925925925927),1,0,0,1.5962662,None,189,0,189,0,341.5086419,,10,341.4965991,341.5086419,341.5086419,0.0207868,343.0929304,np.float64(0.1527777777777778),np.float64(0.40925925925925927),1,0,0,1.5962662,None,2,1,2025-09-30_15h20.33.792,Exp Visual Search,,2025.1.1,59.91137911,2025-09-30 15h20.49.430041 +0530
191,0,191,np.float64(0.15185185185185185),np.float64(-0.34444444444444444),1,0,0,1.5899748,target',191,0,191,0,345.3291791,,10,345.3190722,345.3291791,345.3291791,0.0258759,346.9091335,np.float64(0.15185185185185185),np.float64(-0.34444444444444444),1,0,0,1.5899748,target',2,1,2025-09-30_15h20.33.792,Exp Visual Search,,2025.1.1,59.91137911,2025-09-30 15h20.49.430041 +0530
194,0,194,np.float64(0.35648148148148145),np.float64(0.2212962962962963),1,0,0,2.2425608,target',194,0,194,0,349.6496556,,10,349.6329292,349.6496556,349.6496556,0.0246923,351.8755962,np.float64(0.35648148148148145),np.float64(0.2212962962962963),1,0,0,2.2425608,target',2,1,2025-09-30_15h20.33.792,Exp Visual Search,,2025.1.1,59.91137911,2025-09-30 15h20.49.430041 +0530
,,,,,,,,,,,,,,,,,,,,,,,,,,,,,,,,,,,,
,,,,,,,,Average for 5 dist,,1.589508967,5,,,,,,,,,,,,,,,,,,,,,,,,,
,,,,,,,,Average for 10 dist,,1.927845267,10,,,,,,,,,,,,,,,,,,,,,,,,,
,,,,,,,,slope ,,0.06766726012,,,,,,,,,,,,,,,,,,,,,,,,,,