thisN,thisTrialN,thisRepN,mouse.x,mouse.y,mouse.leftButton,mouse.midButton,mouse.rightButton,mouse.time,mouse.clicked_name,trials.thisRepN,trials.thisTrialN,trials.thisN,trials.thisIndex,thisRow.t,notes,num_distr,trial.started,Fixation.started,target.started,mouse.started,trial.stopped,trials.mouse.x,trials.mouse.y,trials.mouse.leftButton,trials.mouse.midButton,trials.mouse.rightButton,trials.mouse.time,trials.mouse.clicked_name,participant,session,date,expName,expVersion,psychopyVersion,frameRate,expStart
2,0,2,np.float64(-0.4675925925925926),np.float64(0.4009259259259259),1,0,0,1.5567446,target',2,0,2,0,7.5185996,,5,7.5115144,7.5185996,7.5185996,0.0089562,9.0683069,np.float64(-0.4675925925925926),np.float64(0.4009259259259259),1,0,0,1.5567446,target',94327,1,2025-09-30_15h12.26.204,Exp Visual Search,,2025.1.1,59.94208396,2025-09-30 15h12.30.538870 +0530
3,0,3,np.float64(0.31296296296296294),np.float64(0.13333333333333333),1,0,0,2.574791,target',3,0,3,0,9.0841441,,5,9.0766713,9.0841441,9.0841441,0.0082838,11.6515056,np.float64(0.31296296296296294),np.float64(0.13333333333333333),1,0,0,2.574791,target',94327,1,2025-09-30_15h12.26.204,Exp Visual Search,,2025.1.1,59.94208396,2025-09-30 15h12.30.538870 +0530
5,0,5,np.float64(0.075),np.float64(0.016666666666666666),1,0,0,1.890626,target',5,0,5,0,13.7342677,,5,13.7274379,13.7342677,13.7342677,0.0090418,15.6181132,np.float64(0.075),np.float64(0.016666666666666666),1,0,0,1.890626,target',94327,1,2025-09-30_15h12.26.204,Exp Visual Search,,2025.1.1,59.94208396,2025-09-30 15h12.30.538870 +0530
6,0,6,np.float64(-0.362962962962963),np.float64(0.22407407407407406),1,0,0,1.6408915,target',6,0,6,0,15.6340342,,5,15.6270931,15.6340342,15.6340342,0.0088973,17.2680285,np.float64(-0.362962962962963),np.float64(0.22407407407407406),1,0,0,1.6408915,target',94327,1,2025-09-30_15h12.26.204,Exp Visual Search,,2025.1.1,59.94208396,2025-09-30 15h12.30.538870 +0530
7,0,7,np.float64(0.49074074074074076),np.float64(0.3824074074074074),1,0,0,1.9912821,target',7,0,7,0,17.2837366,,5,17.2765441,17.2837366,17.2837366,0.0084447,19.267875,np.float64(0.49074074074074076),np.float64(0.3824074074074074),1,0,0,1.9912821,target',94327,1,2025-09-30_15h12.26.204,Exp Visual Search,,2025.1.1,59.94208396,2025-09-30 15h12.30.538870 +0530
12,0,12,np.float64(-0.04351851851851852),np.float64(0.3638888888888889),1,0,0,1.6255018,target',12,0,12,0,33.3492028,,5,33.3413207,33.3492028,33.3492028,0.0074996,34.9668669,np.float64(-0.04351851851851852),np.float64(0.3638888888888889),1,0,0,1.6255018,target',94327,1,2025-09-30_15h12.26.204,Exp Visual Search,,2025.1.1,59.94208396,2025-09-30 15h12.30.538870 +0530
14,0,14,np.float64(0.3194444444444444),np.float64(0.32222222222222224),1,0,0,1.358264,target',14,0,14,0,37.1495584,,5,37.1419764,37.1495584,37.1495584,0.0074018,38.5003125,np.float64(0.3194444444444444),np.float64(0.32222222222222224),1,0,0,1.358264,target',94327,1,2025-09-30_15h12.26.204,Exp Visual Search,,2025.1.1,59.94208396,2025-09-30 15h12.30.538870 +0530
16,0,16,np.float64(0.275),np.float64(-0.3212962962962963),1,0,0,1.8575074,target',16,0,16,0,39.7994877,,5,39.792264,39.7994877,39.7994877,0.0085611,41.6498246,np.float64(0.275),np.float64(-0.3212962962962963),1,0,0,1.8575074,target',94327,1,2025-09-30_15h12.26.204,Exp Visual Search,,2025.1.1,59.94208396,2025-09-30 15h12.30.538870 +0530
17,0,17,np.float64(0.4305555555555556),np.float64(-0.3787037037037037),1,0,0,1.9756633,target',17,0,17,0,41.665614,,5,41.6574432,41.665614,41.665614,0.0075399,43.6331497,np.float64(0.4305555555555556),np.float64(-0.3787037037037037),1,0,0,1.9756633,target',94327,1,2025-09-30_15h12.26.204,Exp Visual Search,,2025.1.1,59.94208396,2025-09-30 15h12.30.538870 +0530
19,0,19,np.float64(-0.45185185185185184),np.float64(0.48148148148148145),1,0,0,1.6247412,target',19,0,19,0,46.0666612,,5,46.0580855,46.0666612,46.0666612,0.0084344,47.6828691,np.float64(-0.45185185185185184),np.float64(0.48148148148148145),1,0,0,1.6247412,target',94327,1,2025-09-30_15h12.26.204,Exp Visual Search,,2025.1.1,59.94208396,2025-09-30 15h12.30.538870 +0530
24,0,24,np.float64(0.2),np.float64(-0.0962962962962963),1,0,0,1.6755875,target',24,0,24,0,54.8662122,,5,54.8573669,54.8662122,54.8662122,0.0080333,56.5330432,np.float64(0.2),np.float64(-0.0962962962962963),1,0,0,1.6755875,target',94327,1,2025-09-30_15h12.26.204,Exp Visual Search,,2025.1.1,59.94208396,2025-09-30 15h12.30.538870 +0530
25,0,25,np.float64(0.41388888888888886),np.float64(-0.13425925925925927),1,0,0,1.8719572,target',25,0,25,0,56.5518017,,5,56.5436754,56.5518017,56.5518017,0.0104638,58.4156855,np.float64(0.41388888888888886),np.float64(-0.13425925925925927),1,0,0,1.8719572,target',94327,1,2025-09-30_15h12.26.204,Exp Visual Search,,2025.1.1,59.94208396,2025-09-30 15h12.30.538870 +0530
27,0,27,np.float64(-0.33796296296296297),np.float64(0.14351851851851852),1,0,0,2.6918297,target',27,0,27,0,60.0146015,,5,60.0066907,60.0146015,60.0146015,0.0078836,62.6985631,np.float64(-0.33796296296296297),np.float64(0.14351851851851852),1,0,0,2.6918297,target',94327,1,2025-09-30_15h12.26.204,Exp Visual Search,,2025.1.1,59.94208396,2025-09-30 15h12.30.538870 +0530
29,0,29,np.float64(0.30462962962962964),np.float64(0.29074074074074074),1,0,0,2.3249597,target',29,0,29,0,64.7481853,,5,64.7403137,64.7481853,64.7481853,0.0080911,67.0653366,np.float64(0.30462962962962964),np.float64(0.29074074074074074),1,0,0,2.3249597,target',94327,1,2025-09-30_15h12.26.204,Exp Visual Search,,2025.1.1,59.94208396,2025-09-30 15h12.30.538870 +0530
31,0,31,np.float64(0.1787037037037037),np.float64(0.2935185185185185),1,0,0,1.8579443,target',31,0,31,0,70.1319376,,5,70.1236923,70.1319376,70.1319376,0.0083277,71.9816789,np.float64(0.1787037037037037),np.float64(0.2935185185185185),1,0,0,1.8579443,target',94327,1,2025-09-30_15h12.26.204,Exp Visual Search,,2025.1.1,59.94208396,2025-09-30 15h12.30.538870 +0530
32,0,32,np.float64(0.38333333333333336),np.float64(0.33425925925925926),1,0,0,1.4753096,target',32,0,32,0,71.9969338,,5,71.9898192,71.9969338,71.9969338,0.0080675,73.4651832,np.float64(0.38333333333333336),np.float64(0.33425925925925926),1,0,0,1.4753096,target',94327,1,2025-09-30_15h12.26.204,Exp Visual Search,,2025.1.1,59.94208396,2025-09-30 15h12.30.538870 +0530
33,0,33,np.float64(-0.16666666666666666),np.float64(0.29074074074074074),1,0,0,1.6581959,target',33,0,33,0,73.480298,,5,73.4729383,73.480298,73.480298,0.0076814,75.1311876,np.float64(-0.16666666666666666),np.float64(0.29074074074074074),1,0,0,1.6581959,target',94327,1,2025-09-30_15h12.26.204,Exp Visual Search,,2025.1.1,59.94208396,2025-09-30 15h12.30.538870 +0530
34,0,34,np.float64(0.362962962962963),np.float64(0.2490740740740741),1,0,0,1.5921749,target',34,0,34,0,75.1467539,,5,75.1389031,75.1467539,75.1467539,0.0076401,76.7311234,np.float64(0.362962962962963),np.float64(0.2490740740740741),1,0,0,1.5921749,target',94327,1,2025-09-30_15h12.26.204,Exp Visual Search,,2025.1.1,59.94208396,2025-09-30 15h12.30.538870 +0530
37,0,37,np.float64(-0.3611111111111111),np.float64(-0.3398148148148148),1,0,0,1.8587161,target',37,0,37,0,80.1134871,,5,80.1056785,80.1134871,80.1134871,0.0077265,81.9644703,np.float64(-0.3611111111111111),np.float64(-0.3398148148148148),1,0,0,1.8587161,target',94327,1,2025-09-30_15h12.26.204,Exp Visual Search,,2025.1.1,59.94208396,2025-09-30 15h12.30.538870 +0530
38,0,38,np.float64(-0.09537037037037037),np.float64(0.2740740740740741),1,0,0,2.3905837,target',38,0,38,0,81.9823965,,5,81.973978,81.9823965,81.9823965,0.0093519,84.3646529,np.float64(-0.09537037037037037),np.float64(0.2740740740740741),1,0,0,2.3905837,target',94327,1,2025-09-30_15h12.26.204,Exp Visual Search,,2025.1.1,59.94208396,2025-09-30 15h12.30.538870 +0530
39,0,39,np.float64(0.4861111111111111),np.float64(-0.11018518518518519),1,0,0,2.0898162,target',39,0,39,0,84.3808601,,5,84.3735638,84.3808601,84.3808601,0.0086903,86.4634251,np.float64(0.4861111111111111),np.float64(-0.11018518518518519),1,0,0,2.0898162,target',94327,1,2025-09-30_15h12.26.204,Exp Visual Search,,2025.1.1,59.94208396,2025-09-30 15h12.30.538870 +0530
40,0,40,np.float64(0.3472222222222222),np.float64(0.025925925925925925),1,0,0,1.2580808,target',40,0,40,0,86.4802764,,5,86.4722398,86.4802764,86.4802764,0.0087425,87.7303644,np.float64(0.3472222222222222),np.float64(0.025925925925925925),1,0,0,1.2580808,target',94327,1,2025-09-30_15h12.26.204,Exp Visual Search,,2025.1.1,59.94208396,2025-09-30 15h12.30.538870 +0530
46,0,46,np.float64(-0.04814814814814815),np.float64(0.40370370370370373),1,0,0,1.8084509,target',46,0,46,0,100.4951122,,5,100.4877669,100.4951122,100.4951122,0.0079703,102.2962646,np.float64(-0.04814814814814815),np.float64(0.40370370370370373),1,0,0,1.8084509,target',94327,1,2025-09-30_15h12.26.204,Exp Visual Search,,2025.1.1,59.94208396,2025-09-30 15h12.30.538870 +0530
47,0,47,np.float64(-0.4444444444444444),np.float64(-0.2064814814814815),1,0,0,1.7087517,target',47,0,47,0,102.3121378,,5,102.3042129,102.3121378,102.3121378,0.0078797,104.0130067,np.float64(-0.4444444444444444),np.float64(-0.2064814814814815),1,0,0,1.7087517,target',94327,1,2025-09-30_15h12.26.204,Exp Visual Search,,2025.1.1,59.94208396,2025-09-30 15h12.30.538870 +0530
49,0,49,np.float64(-0.3074074074074074),np.float64(-0.21388888888888888),1,0,0,3.9911673,target',49,0,49,0,106.0628439,,5,106.0545912,106.0628439,106.0628439,0.0079229,110.0458003,np.float64(-0.3074074074074074),np.float64(-0.21388888888888888),1,0,0,3.9911673,target',94327,1,2025-09-30_15h12.26.204,Exp Visual Search,,2025.1.1,59.94208396,2025-09-30 15h12.30.538870 +0530
51,0,51,np.float64(-0.2111111111111111),np.float64(0.3453703703703704),1,0,0,1.7233141,target',51,0,51,0,112.4467422,,5,112.4388751,112.4467422,112.4467422,0.0093825,114.1622339,np.float64(-0.2111111111111111),np.float64(0.3453703703703704),1,0,0,1.7233141,target',94327,1,2025-09-30_15h12.26.204,Exp Visual Search,,2025.1.1,59.94208396,2025-09-30 15h12.30.538870 +0530
52,0,52,np.float64(-0.46944444444444444),np.float64(0.462037037037037),1,0,0,1.6426586,target',52,0,52,0,114.177837,,5,114.1696157,114.177837,114.177837,0.0073189,115.8123151,np.float64(-0.46944444444444444),np.float64(0.462037037037037),1,0,0,1.6426586,target',94327,1,2025-09-30_15h12.26.204,Exp Visual Search,,2025.1.1,59.94208396,2025-09-30 15h12.30.538870 +0530
55,0,55,np.float64(0.25555555555555554),np.float64(-0.337037037037037),1,0,0,1.9073326,target',55,0,55,0,119.8784102,,5,119.8715886,119.8784102,119.8784102,0.0096274,121.7790373,np.float64(0.25555555555555554),np.float64(-0.337037037037037),1,0,0,1.9073326,target',94327,1,2025-09-30_15h12.26.204,Exp Visual Search,,2025.1.1,59.94208396,2025-09-30 15h12.30.538870 +0530
56,0,56,np.float64(0.13055555555555556),np.float64(0.11388888888888889),1,0,0,1.906648,target',56,0,56,0,121.7951918,,5,121.7882887,121.7951918,121.7951918,0.0089741,123.6950007,np.float64(0.13055555555555556),np.float64(0.11388888888888889),1,0,0,1.906648,target',94327,1,2025-09-30_15h12.26.204,Exp Visual Search,,2025.1.1,59.94208396,2025-09-30 15h12.30.538870 +0530
57,0,57,np.float64(0.15462962962962962),np.float64(0.11203703703703703),1,0,0,1.1567491,target',57,0,57,0,123.711238,,5,123.7044051,123.711238,123.711238,0.0092906,124.8611994,np.float64(0.15462962962962962),np.float64(0.11203703703703703),1,0,0,1.1567491,target',94327,1,2025-09-30_15h12.26.204,Exp Visual Search,,2025.1.1,59.94208396,2025-09-30 15h12.30.538870 +0530
58,0,58,np.float64(0.11666666666666667),np.float64(-0.1814814814814815),1,0,0,1.5087776,target',58,0,58,0,124.8772454,,5,124.8691271,124.8772454,124.8772454,0.007859,126.3779527,np.float64(0.11666666666666667),np.float64(-0.1814814814814815),1,0,0,1.5087776,target',94327,1,2025-09-30_15h12.26.204,Exp Visual Search,,2025.1.1,59.94208396,2025-09-30 15h12.30.538870 +0530
61,0,61,np.float64(0.3824074074074074),np.float64(0.27685185185185185),1,0,0,1.7082678,target',61,0,61,0,128.9602952,,5,128.952711,128.9602952,128.9602952,0.0078969,130.6610246,np.float64(0.3824074074074074),np.float64(0.27685185185185185),1,0,0,1.7082678,target',94327,1,2025-09-30_15h12.26.204,Exp Visual Search,,2025.1.1,59.94208396,2025-09-30 15h12.30.538870 +0530
63,0,63,np.float64(-0.42407407407407405),np.float64(0.009259259259259259),1,0,0,1.8253355,target',63,0,63,0,132.5441063,,5,132.5362559,132.5441063,132.5441063,0.0083293,134.3616831,np.float64(-0.42407407407407405),np.float64(0.009259259259259259),1,0,0,1.8253355,target',94327,1,2025-09-30_15h12.26.204,Exp Visual Search,,2025.1.1,59.94208396,2025-09-30 15h12.30.538870 +0530
64,0,64,np.float64(-0.3861111111111111),np.float64(0.4537037037037037),1,0,0,1.905077,target',64,0,64,0,134.3807377,,5,134.3728552,134.3807377,134.3807377,0.0109959,136.2779862,np.float64(-0.3861111111111111),np.float64(0.4537037037037037),1,0,0,1.905077,target',94327,1,2025-09-30_15h12.26.204,Exp Visual Search,,2025.1.1,59.94208396,2025-09-30 15h12.30.538870 +0530
65,0,65,np.float64(-0.27685185185185185),np.float64(-0.2490740740740741),1,0,0,1.6209431,target',65,0,65,0,136.2984034,,5,136.28994,136.2984034,136.2984034,0.0118757,137.9109252,np.float64(-0.27685185185185185),np.float64(-0.2490740740740741),1,0,0,1.6209431,target',94327,1,2025-09-30_15h12.26.204,Exp Visual Search,,2025.1.1,59.94208396,2025-09-30 15h12.30.538870 +0530
66,0,66,np.float64(0.006481481481481481),np.float64(0.18518518518518517),1,0,0,1.424861,target',66,0,66,0,137.9267456,,5,137.9190544,137.9267456,137.9267456,0.0080588,139.3439577,np.float64(0.006481481481481481),np.float64(0.18518518518518517),1,0,0,1.424861,target',94327,1,2025-09-30_15h12.26.204,Exp Visual Search,,2025.1.1,59.94208396,2025-09-30 15h12.30.538870 +0530
68,0,68,np.float64(0.25092592592592594),np.float64(-0.32037037037037036),1,0,0,1.5058169,target',68,0,68,0,140.7791106,,5,140.771203,140.7791106,140.7791106,0.0099556,142.2770643,np.float64(0.25092592592592594),np.float64(-0.32037037037037036),1,0,0,1.5058169,target',94327,1,2025-09-30_15h12.26.204,Exp Visual Search,,2025.1.1,59.94208396,2025-09-30 15h12.30.538870 +0530
69,0,69,np.float64(-0.3055555555555556),np.float64(-0.2574074074074074),1,0,0,1.5590777,target',69,0,69,0,142.2926789,,5,142.2844447,142.2926789,142.2926789,0.0073084,143.8435681,np.float64(-0.3055555555555556),np.float64(-0.2574074074074074),1,0,0,1.5590777,target',94327,1,2025-09-30_15h12.26.204,Exp Visual Search,,2025.1.1,59.94208396,2025-09-30 15h12.30.538870 +0530
71,0,71,np.float64(-0.17037037037037037),np.float64(-0.2824074074074074),1,0,0,1.2261822,target',71,0,71,0,145.6426346,,5,145.6344807,145.6426346,145.6426346,0.0078268,146.8607221,np.float64(-0.17037037037037037),np.float64(-0.2824074074074074),1,0,0,1.2261822,target',94327,1,2025-09-30_15h12.26.204,Exp Visual Search,,2025.1.1,59.94208396,2025-09-30 15h12.30.538870 +0530
72,0,72,np.float64(-0.2833333333333333),np.float64(0.03888888888888889),1,0,0,1.6235837,target',72,0,72,0,146.8785,,5,146.8700683,146.8785,146.8785,0.009246,148.4937182,np.float64(-0.2833333333333333),np.float64(0.03888888888888889),1,0,0,1.6235837,target',94327,1,2025-09-30_15h12.26.204,Exp Visual Search,,2025.1.1,59.94208396,2025-09-30 15h12.30.538870 +0530
74,0,74,np.float64(-0.05740740740740741),np.float64(-0.3907407407407407),1,0,0,1.8252559,target',74,0,74,0,150.0090547,,5,150.0012607,150.0090547,150.0090547,0.0075701,151.8265593,np.float64(-0.05740740740740741),np.float64(-0.3907407407407407),1,0,0,1.8252559,target',94327,1,2025-09-30_15h12.26.204,Exp Visual Search,,2025.1.1,59.94208396,2025-09-30 15h12.30.538870 +0530
76,0,76,np.float64(-0.287962962962963),np.float64(-0.39444444444444443),1,0,0,2.408585,target',76,0,76,0,153.592102,,5,153.5846325,153.592102,153.592102,0.0079783,155.9932706,np.float64(-0.287962962962963),np.float64(-0.39444444444444443),1,0,0,2.408585,target',94327,1,2025-09-30_15h12.26.204,Exp Visual Search,,2025.1.1,59.94208396,2025-09-30 15h12.30.538870 +0530
79,0,79,np.float64(0.19537037037037036),np.float64(-0.4583333333333333),1,0,0,1.3568332,target',79,0,79,0,159.1765156,,5,159.1692758,159.1765156,159.1765156,0.0099757,160.5261538,np.float64(0.19537037037037036),np.float64(-0.4583333333333333),1,0,0,1.3568332,target',94327,1,2025-09-30_15h12.26.204,Exp Visual Search,,2025.1.1,59.94208396,2025-09-30 15h12.30.538870 +0530
80,0,80,np.float64(-0.2222222222222222),np.float64(0.5),1,0,0,1.4750533,target',80,0,80,0,160.5974732,,5,160.5342873,160.5974732,160.5974732,0.0080615,162.0093933,np.float64(-0.2222222222222222),np.float64(0.5),1,0,0,1.4750533,target',94327,1,2025-09-30_15h12.26.204,Exp Visual Search,,2025.1.1,59.94208396,2025-09-30 15h12.30.538870 +0530
81,0,81,np.float64(0.2351851851851852),np.float64(-0.017592592592592594),1,0,0,1.9404344,target',81,0,81,0,162.0256841,,5,162.0187991,162.0256841,162.0256841,0.0093098,163.9592872,np.float64(0.2351851851851852),np.float64(-0.017592592592592594),1,0,0,1.9404344,target',94327,1,2025-09-30_15h12.26.204,Exp Visual Search,,2025.1.1,59.94208396,2025-09-30 15h12.30.538870 +0530
83,0,83,np.float64(0.35185185185185186),np.float64(-0.03148148148148148),1,0,0,1.7593033,target',83,0,83,0,165.9579999,,5,165.9500842,165.9579999,165.9579999,0.00769,167.7094679,np.float64(0.35185185185185186),np.float64(-0.03148148148148148),1,0,0,1.7593033,target',94327,1,2025-09-30_15h12.26.204,Exp Visual Search,,2025.1.1,59.94208396,2025-09-30 15h12.30.538870 +0530
84,0,84,np.float64(0.05648148148148148),np.float64(-0.20092592592592592),1,0,0,1.5077054,target',84,0,84,0,167.7246727,,5,167.7178904,167.7246727,167.7246727,0.0082614,169.2256512,np.float64(0.05648148148148148),np.float64(-0.20092592592592592),1,0,0,1.5077054,target',94327,1,2025-09-30_15h12.26.204,Exp Visual Search,,2025.1.1,59.94208396,2025-09-30 15h12.30.538870 +0530
85,0,85,np.float64(-0.26296296296296295),np.float64(-0.42685185185185187),1,0,0,1.8255562,target',85,0,85,0,169.2411723,,5,169.2332187,169.2411723,169.2411723,0.0074692,171.0588301,np.float64(-0.26296296296296295),np.float64(-0.42685185185185187),1,0,0,1.8255562,target',94327,1,2025-09-30_15h12.26.204,Exp Visual Search,,2025.1.1,59.94208396,2025-09-30 15h12.30.538870 +0530
86,0,86,np.float64(0.1537037037037037),np.float64(-0.20092592592592592),1,0,0,1.792134,target',86,0,86,0,171.0744005,,5,171.0669956,171.0744005,171.0744005,0.0080685,172.8592201,np.float64(0.1537037037037037),np.float64(-0.20092592592592592),1,0,0,1.792134,target',94327,1,2025-09-30_15h12.26.204,Exp Visual Search,,2025.1.1,59.94208396,2025-09-30 15h12.30.538870 +0530
87,0,87,np.float64(-0.21296296296296297),np.float64(0.4898148148148148),1,0,0,2.4392798,target',87,0,87,0,172.8758435,,5,172.8691207,172.8758435,172.8758435,0.0097247,175.3084591,np.float64(-0.21296296296296297),np.float64(0.4898148148148148),1,0,0,2.4392798,target',94327,1,2025-09-30_15h12.26.204,Exp Visual Search,,2025.1.1,59.94208396,2025-09-30 15h12.30.538870 +0530
88,0,88,np.float64(0.17592592592592593),np.float64(0.22314814814814815),1,0,0,1.5902988,target',88,0,88,0,175.3247645,,5,175.3179739,175.3247645,175.3247645,0.0094097,176.9083152,np.float64(0.17592592592592593),np.float64(0.22314814814814815),1,0,0,1.5902988,target',94327,1,2025-09-30_15h12.26.204,Exp Visual Search,,2025.1.1,59.94208396,2025-09-30 15h12.30.538870 +0530
89,0,89,np.float64(-0.4027777777777778),np.float64(0.42962962962962964),1,0,0,1.3920855,target',89,0,89,0,176.9241395,,5,176.9163599,176.9241395,176.9241395,0.0079746,178.3085194,np.float64(-0.4027777777777778),np.float64(0.42962962962962964),1,0,0,1.3920855,target',94327,1,2025-09-30_15h12.26.204,Exp Visual Search,,2025.1.1,59.94208396,2025-09-30 15h12.30.538870 +0530
90,0,90,np.float64(0.013888888888888888),np.float64(0.13518518518518519),1,0,0,1.5396891,target',90,0,90,0,178.3261435,,5,178.3183124,178.3261435,178.3261435,0.0096562,179.8580457,np.float64(0.013888888888888888),np.float64(0.13518518518518519),1,0,0,1.5396891,target',94327,1,2025-09-30_15h12.26.204,Exp Visual Search,,2025.1.1,59.94208396,2025-09-30 15h12.30.538870 +0530
93,0,93,np.float64(-0.10740740740740741),np.float64(0.35648148148148145),1,0,0,1.5576345,target',93,0,93,0,184.157707,,5,184.1498856,184.157707,184.157707,0.0074708,185.7075838,np.float64(-0.10740740740740741),np.float64(0.35648148148148145),1,0,0,1.5576345,target',94327,1,2025-09-30_15h12.26.204,Exp Visual Search,,2025.1.1,59.94208396,2025-09-30 15h12.30.538870 +0530
94,0,94,np.float64(-0.2953703703703704),np.float64(0.18425925925925926),1,0,0,1.8423763,target',94,0,94,0,185.7234035,,5,185.7153078,185.7234035,185.7234035,0.0076433,187.5577332,np.float64(-0.2953703703703704),np.float64(0.18425925925925926),1,0,0,1.8423763,target',94327,1,2025-09-30_15h12.26.204,Exp Visual Search,,2025.1.1,59.94208396,2025-09-30 15h12.30.538870 +0530
96,0,96,np.float64(-0.3212962962962963),np.float64(0.1398148148148148),1,0,0,1.9261917,target',96,0,96,0,189.823115,,5,189.8153084,189.823115,189.823115,0.0077251,191.7415851,np.float64(-0.3212962962962963),np.float64(0.1398148148148148),1,0,0,1.9261917,target',94327,1,2025-09-30_15h12.26.204,Exp Visual Search,,2025.1.1,59.94208396,2025-09-30 15h12.30.538870 +0530
98,0,98,np.float64(0.15462962962962962),np.float64(0.15648148148148147),1,0,0,1.606954,target',98,0,98,0,193.2407838,,5,193.2339696,193.2407838,193.2407838,0.009875,194.8409714,np.float64(0.15462962962962962),np.float64(0.15648148148148147),1,0,0,1.606954,target',94327,1,2025-09-30_15h12.26.204,Exp Visual Search,,2025.1.1,59.94208396,2025-09-30 15h12.30.538870 +0530
105,0,105,np.float64(-0.21666666666666667),np.float64(-0.02962962962962963),1,0,0,1.7240887,target',105,0,105,0,206.190505,,5,206.1826991,206.190505,206.190505,0.0090869,207.9068614,np.float64(-0.21666666666666667),np.float64(-0.02962962962962963),1,0,0,1.7240887,target',94327,1,2025-09-30_15h12.26.204,Exp Visual Search,,2025.1.1,59.94208396,2025-09-30 15h12.30.538870 +0530
106,0,106,np.float64(0.008333333333333333),np.float64(0.49074074074074076),1,0,0,2.8555779,target',106,0,106,0,207.9254398,,5,207.917192,207.9254398,207.9254398,0.0101958,210.7728165,np.float64(0.008333333333333333),np.float64(0.49074074074074076),1,0,0,2.8555779,target',94327,1,2025-09-30_15h12.26.204,Exp Visual Search,,2025.1.1,59.94208396,2025-09-30 15h12.30.538870 +0530
108,0,108,np.float64(0.2537037037037037),np.float64(0.35),1,0,0,1.4551104,target',108,0,108,0,213.1082608,,5,213.1009411,213.1082608,213.1082608,0.0109971,214.5560957,np.float64(0.2537037037037037),np.float64(0.35),1,0,0,1.4551104,target',94327,1,2025-09-30_15h12.26.204,Exp Visual Search,,2025.1.1,59.94208396,2025-09-30 15h12.30.538870 +0530
109,0,109,np.float64(-0.15555555555555556),np.float64(-0.34444444444444444),1,0,0,1.8587004,target',109,0,109,0,214.5717406,,5,214.5636237,214.5717406,214.5717406,0.007458,216.4223727,np.float64(-0.15555555555555556),np.float64(-0.34444444444444444),1,0,0,1.8587004,target',94327,1,2025-09-30_15h12.26.204,Exp Visual Search,,2025.1.1,59.94208396,2025-09-30 15h12.30.538870 +0530
110,0,110,np.float64(-0.48055555555555557),np.float64(-0.2833333333333333),1,0,0,1.6583074,target',110,0,110,0,216.4382997,,5,216.4307063,216.4382997,216.4382997,0.0082573,218.0890672,np.float64(-0.48055555555555557),np.float64(-0.2833333333333333),1,0,0,1.6583074,target',94327,1,2025-09-30_15h12.26.204,Exp Visual Search,,2025.1.1,59.94208396,2025-09-30 15h12.30.538870 +0530
112,0,112,np.float64(-0.2833333333333333),np.float64(0.06111111111111111),1,0,0,1.5899621,target',112,0,112,0,220.0558732,,5,220.0490637,220.0558732,220.0558732,0.0095772,221.6390698,np.float64(-0.2833333333333333),np.float64(0.06111111111111111),1,0,0,1.5899621,target',94327,1,2025-09-30_15h12.26.204,Exp Visual Search,,2025.1.1,59.94208396,2025-09-30 15h12.30.538870 +0530
113,0,113,np.float64(0.11388888888888889),np.float64(0.3472222222222222),1,0,0,1.5754444,target',113,0,113,0,221.6548551,,5,221.6466648,221.6548551,221.6548551,0.0075248,223.222167,np.float64(0.11388888888888889),np.float64(0.3472222222222222),1,0,0,1.5754444,target',94327,1,2025-09-30_15h12.26.204,Exp Visual Search,,2025.1.1,59.94208396,2025-09-30 15h12.30.538870 +0530
115,0,115,np.float64(-0.3212962962962963),np.float64(-0.3527777777777778),1,0,0,1.8918294,target',115,0,115,0,224.8209743,,5,224.8132443,224.8209743,224.8209743,0.0075636,226.705121,np.float64(-0.3212962962962963),np.float64(-0.3527777777777778),1,0,0,1.8918294,target',94327,1,2025-09-30_15h12.26.204,Exp Visual Search,,2025.1.1,59.94208396,2025-09-30 15h12.30.538870 +0530
116,0,116,np.float64(0.06481481481481481),np.float64(-0.07222222222222222),1,0,0,1.2090114,target',116,0,116,0,226.7209526,,5,226.71273,226.7209526,226.7209526,0.0075367,227.9217855,np.float64(0.06481481481481481),np.float64(-0.07222222222222222),1,0,0,1.2090114,target',94327,1,2025-09-30_15h12.26.204,Exp Visual Search,,2025.1.1,59.94208396,2025-09-30 15h12.30.538870 +0530
119,0,119,np.float64(-0.2037037037037037),np.float64(-0.1648148148148148),1,0,0,1.3894599,target',119,0,119,0,230.674139,,5,230.6661685,230.674139,230.674139,0.010643,232.0557106,np.float64(-0.2037037037037037),np.float64(-0.1648148148148148),1,0,0,1.3894599,target',94327,1,2025-09-30_15h12.26.204,Exp Visual Search,,2025.1.1,59.94208396,2025-09-30 15h12.30.538870 +0530
120,0,120,np.float64(-0.019444444444444445),np.float64(0.18333333333333332),1,0,0,1.4893146,target',120,0,120,0,232.0734935,,5,232.0655381,232.0734935,232.0734935,0.0096635,233.5548982,np.float64(-0.019444444444444445),np.float64(0.18333333333333332),1,0,0,1.4893146,target',94327,1,2025-09-30_15h12.26.204,Exp Visual Search,,2025.1.1,59.94208396,2025-09-30 15h12.30.538870 +0530
127,0,127,np.float64(0.13796296296296295),np.float64(0.14351851851851852),1,0,0,1.4561106,target',127,0,127,0,246.2379539,,5,246.2309164,246.2379539,246.2379539,0.0089037,247.6870764,np.float64(0.13796296296296295),np.float64(0.14351851851851852),1,0,0,1.4561106,target',94327,1,2025-09-30_15h12.26.204,Exp Visual Search,,2025.1.1,59.94208396,2025-09-30 15h12.30.538870 +0530
128,0,128,np.float64(-0.3611111111111111),np.float64(-0.05185185185185185),1,0,0,1.8407141,target',128,0,128,0,247.7042868,,5,247.6968652,247.7042868,247.7042868,0.0097099,249.5376833,np.float64(-0.3611111111111111),np.float64(-0.05185185185185185),1,0,0,1.8407141,target',94327,1,2025-09-30_15h12.26.204,Exp Visual Search,,2025.1.1,59.94208396,2025-09-30 15h12.30.538870 +0530
129,0,129,np.float64(-0.3888888888888889),np.float64(-0.2074074074074074),1,0,0,1.3911813,target',129,0,129,0,249.5529101,,5,249.5458711,249.5529101,249.5529101,0.008003,250.937097,np.float64(-0.3888888888888889),np.float64(-0.2074074074074074),1,0,0,1.3911813,target',94327,1,2025-09-30_15h12.26.204,Exp Visual Search,,2025.1.1,59.94208396,2025-09-30 15h12.30.538870 +0530
130,0,130,np.float64(0.42314814814814816),np.float64(0.3435185185185185),1,0,0,1.7579145,target',130,0,130,0,250.9534231,,5,250.9462894,250.9534231,250.9534231,0.0091178,252.7042837,np.float64(0.42314814814814816),np.float64(0.3435185185185185),1,0,0,1.7579145,target',94327,1,2025-09-30_15h12.26.204,Exp Visual Search,,2025.1.1,59.94208396,2025-09-30 15h12.30.538870 +0530
131,0,131,np.float64(0.21851851851851853),np.float64(0.18888888888888888),1,0,0,1.6061899,target',131,0,131,0,252.7218923,,5,252.7145507,252.7218923,252.7218923,0.0101263,254.3208368,np.float64(0.21851851851851853),np.float64(0.18888888888888888),1,0,0,1.6061899,target',94327,1,2025-09-30_15h12.26.204,Exp Visual Search,,2025.1.1,59.94208396,2025-09-30 15h12.30.538870 +0530
135,0,135,np.float64(0.2361111111111111),np.float64(0.01574074074074074),1,0,0,1.6594011,target',135,0,135,0,260.2689488,,5,260.2607914,260.2689488,260.2689488,0.0071138,261.9202553,np.float64(0.2361111111111111),np.float64(0.01574074074074074),1,0,0,1.6594011,target',94327,1,2025-09-30_15h12.26.204,Exp Visual Search,,2025.1.1,59.94208396,2025-09-30 15h12.30.538870 +0530
136,0,136,np.float64(-0.4101851851851852),np.float64(-0.08333333333333333),1,0,0,1.2911261,target',136,0,136,0,261.9359727,,5,261.9282093,261.9359727,261.9359727,0.0078829,263.2193868,np.float64(-0.4101851851851852),np.float64(-0.08333333333333333),1,0,0,1.2911261,target',94327,1,2025-09-30_15h12.26.204,Exp Visual Search,,2025.1.1,59.94208396,2025-09-30 15h12.30.538870 +0530
138,0,138,np.float64(-0.3648148148148148),np.float64(-0.39537037037037037),1,0,0,1.9587788,target',138,0,138,0,264.8689643,,5,264.8608487,264.8689643,264.8689643,0.00785,266.8196819,np.float64(-0.3648148148148148),np.float64(-0.39537037037037037),1,0,0,1.9587788,target',94327,1,2025-09-30_15h12.26.204,Exp Visual Search,,2025.1.1,59.94208396,2025-09-30 15h12.30.538870 +0530
141,0,141,np.float64(-0.4842592592592593),np.float64(0.49537037037037035),1,0,0,1.2761833,target',141,0,141,0,270.8850568,,5,270.876901,270.8850568,270.8850568,0.0077539,272.1531778,np.float64(-0.4842592592592593),np.float64(0.49537037037037035),1,0,0,1.2761833,target',94327,1,2025-09-30_15h12.26.204,Exp Visual Search,,2025.1.1,59.94208396,2025-09-30 15h12.30.538870 +0530
142,0,142,np.float64(0.35833333333333334),np.float64(-0.06759259259259259),1,0,0,1.6235447,target',142,0,142,0,272.1695608,,5,272.162761,272.1695608,272.1695608,0.0094133,273.7863995,np.float64(0.35833333333333334),np.float64(-0.06759259259259259),1,0,0,1.6235447,target',94327,1,2025-09-30_15h12.26.204,Exp Visual Search,,2025.1.1,59.94208396,2025-09-30 15h12.30.538870 +0530
143,0,143,np.float64(0.3351851851851852),np.float64(0.18611111111111112),1,0,0,1.5891363,target',143,0,143,0,273.8039725,,5,273.797096,273.8039725,273.8039725,0.0105247,275.3863294,np.float64(0.3351851851851852),np.float64(0.18611111111111112),1,0,0,1.5891363,target',94327,1,2025-09-30_15h12.26.204,Exp Visual Search,,2025.1.1,59.94208396,2025-09-30 15h12.30.538870 +0530
144,0,144,np.float64(0.1675925925925926),np.float64(0.02962962962962963),1,0,0,2.0879276,target',144,0,144,0,275.4045727,,5,275.3977162,275.4045727,275.4045727,0.0112,277.4856848,np.float64(0.1675925925925926),np.float64(0.02962962962962963),1,0,0,2.0879276,target',94327,1,2025-09-30_15h12.26.204,Exp Visual Search,,2025.1.1,59.94208396,2025-09-30 15h12.30.538870 +0530
145,0,145,np.float64(-0.25277777777777777),np.float64(0.48518518518518516),1,0,0,2.0421005,target',145,0,145,0,277.5013097,,5,277.493189,277.5013097,277.5013097,0.0074334,279.5353361,np.float64(-0.25277777777777777),np.float64(0.48518518518518516),1,0,0,2.0421005,target',94327,1,2025-09-30_15h12.26.204,Exp Visual Search,,2025.1.1,59.94208396,2025-09-30 15h12.30.538870 +0530
147,0,147,np.float64(-0.45555555555555555),np.float64(0.3453703703703704),1,0,0,1.8086904,target',147,0,147,0,281.0177777,,5,281.0096651,281.0177777,281.0177777,0.0075761,282.8184041,np.float64(-0.45555555555555555),np.float64(0.3453703703703704),1,0,0,1.8086904,target',94327,1,2025-09-30_15h12.26.204,Exp Visual Search,,2025.1.1,59.94208396,2025-09-30 15h12.30.538870 +0530
148,0,148,np.float64(-0.03333333333333333),np.float64(-0.14907407407407408),1,0,0,1.708779,target',148,0,148,0,282.8349041,,5,282.8268775,282.8349041,282.8349041,0.0083951,284.5357462,np.float64(-0.03333333333333333),np.float64(-0.14907407407407408),1,0,0,1.708779,target',94327,1,2025-09-30_15h12.26.204,Exp Visual Search,,2025.1.1,59.94208396,2025-09-30 15h12.30.538870 +0530
151,0,151,np.float64(-0.33611111111111114),np.float64(0.14351851851851852),1,0,0,1.7583704,target',151,0,151,0,288.2506366,,5,288.2434405,288.2506366,288.2506366,0.0083605,290.0018578,np.float64(-0.33611111111111114),np.float64(0.14351851851851852),1,0,0,1.7583704,target',94327,1,2025-09-30_15h12.26.204,Exp Visual Search,,2025.1.1,59.94208396,2025-09-30 15h12.30.538870 +0530
155,0,155,np.float64(-0.287962962962963),np.float64(-0.34629629629629627),1,0,0,1.540562,target',155,0,155,0,295.7007661,,5,295.6938845,295.7007661,295.7007661,0.0089237,297.2344988,np.float64(-0.287962962962963),np.float64(-0.34629629629629627),1,0,0,1.540562,target',94327,1,2025-09-30_15h12.26.204,Exp Visual Search,,2025.1.1,59.94208396,2025-09-30 15h12.30.538870 +0530
156,0,156,np.float64(-0.07407407407407407),np.float64(-0.06111111111111111),1,0,0,2.0248618,target',156,0,156,0,297.250067,,5,297.2426633,297.250067,297.250067,0.0080769,299.2675687,np.float64(-0.07407407407407407),np.float64(-0.06111111111111111),1,0,0,2.0248618,target',94327,1,2025-09-30_15h12.26.204,Exp Visual Search,,2025.1.1,59.94208396,2025-09-30 15h12.30.538870 +0530
157,0,157,np.float64(-0.2722222222222222),np.float64(-0.06388888888888888),1,0,0,1.459247,target',157,0,157,0,299.2832954,,5,299.2751731,299.2832954,299.2832954,0.007534,300.7344654,np.float64(-0.2722222222222222),np.float64(-0.06388888888888888),1,0,0,1.459247,target',94327,1,2025-09-30_15h12.26.204,Exp Visual Search,,2025.1.1,59.94208396,2025-09-30 15h12.30.538870 +0530
158,0,158,np.float64(-0.049074074074074076),np.float64(0.21851851851851853),1,0,0,1.2562752,target',158,0,158,0,300.7513523,,5,300.7441237,300.7513523,300.7513523,0.0095923,302.0004476,np.float64(-0.049074074074074076),np.float64(0.21851851851851853),1,0,0,1.2562752,target',94327,1,2025-09-30_15h12.26.204,Exp Visual Search,,2025.1.1,59.94208396,2025-09-30 15h12.30.538870 +0530
159,0,159,np.float64(0.2833333333333333),np.float64(-0.4101851851851852),1,0,0,2.0574645,target',159,0,159,0,302.0178269,,5,302.0097097,302.0178269,302.0178269,0.009193,304.0672215,np.float64(0.2833333333333333),np.float64(-0.4101851851851852),1,0,0,2.0574645,target',94327,1,2025-09-30_15h12.26.204,Exp Visual Search,,2025.1.1,59.94208396,2025-09-30 15h12.30.538870 +0530
164,0,164,np.float64(0.4564814814814815),np.float64(0.10648148148148148),1,0,0,1.6750672,target',164,0,164,0,313.0005149,,5,312.9916181,313.0005149,313.0005149,0.0079431,314.6667364,np.float64(0.4564814814814815),np.float64(0.10648148148148148),1,0,0,1.6750672,target',94327,1,2025-09-30_15h12.26.204,Exp Visual Search,,2025.1.1,59.94208396,2025-09-30 15h12.30.538870 +0530
165,0,165,np.float64(0.2953703703703704),np.float64(0.20462962962962963),1,0,0,1.259068,target',165,0,165,0,314.6824273,,5,314.6744707,314.6824273,314.6824273,0.0076517,315.9336398,np.float64(0.2953703703703704),np.float64(0.20462962962962963),1,0,0,1.259068,target',94327,1,2025-09-30_15h12.26.204,Exp Visual Search,,2025.1.1,59.94208396,2025-09-30 15h12.30.538870 +0530
166,0,166,np.float64(-0.30277777777777776),np.float64(-0.39166666666666666),1,0,0,2.2856856,target',166,0,166,0,315.9550024,,5,315.9474537,315.9550024,315.9550024,0.0136359,318.2331878,np.float64(-0.30277777777777776),np.float64(-0.39166666666666666),1,0,0,2.2856856,target',94327,1,2025-09-30_15h12.26.204,Exp Visual Search,,2025.1.1,59.94208396,2025-09-30 15h12.30.538870 +0530
167,0,167,np.float64(-0.4722222222222222),np.float64(-0.2953703703703704),1,0,0,1.3740706,target',167,0,167,0,318.2498798,,5,318.2419322,318.2498798,318.2498798,0.0086483,319.6160519,np.float64(-0.4722222222222222),np.float64(-0.2953703703703704),1,0,0,1.3740706,target',94327,1,2025-09-30_15h12.26.204,Exp Visual Search,,2025.1.1,59.94208396,2025-09-30 15h12.30.538870 +0530
169,0,169,np.float64(0.1925925925925926),np.float64(-0.38425925925925924),1,0,0,1.7255083,target',169,0,169,0,321.6986758,,5,321.6907978,321.6986758,321.6986758,0.0080619,323.4163845,np.float64(0.1925925925925926),np.float64(-0.38425925925925924),1,0,0,1.7255083,target',94327,1,2025-09-30_15h12.26.204,Exp Visual Search,,2025.1.1,59.94208396,2025-09-30 15h12.30.538870 +0530
171,0,171,np.float64(0.17222222222222222),np.float64(0.17407407407407408),1,0,0,2.2206945,target',171,0,171,0,325.9865637,,5,325.9784719,325.9865637,325.9865637,0.0118106,328.1992203,np.float64(0.17222222222222222),np.float64(0.17407407407407408),1,0,0,2.2206945,target',94327,1,2025-09-30_15h12.26.204,Exp Visual Search,,2025.1.1,59.94208396,2025-09-30 15h12.30.538870 +0530
175,0,175,np.float64(-0.26851851851851855),np.float64(-0.16203703703703703),1,0,0,2.1085816,target',175,0,175,0,333.8478437,,5,333.8399419,333.8478437,333.8478437,0.0075146,335.9485695,np.float64(-0.26851851851851855),np.float64(-0.16203703703703703),1,0,0,2.1085816,target',94327,1,2025-09-30_15h12.26.204,Exp Visual Search,,2025.1.1,59.94208396,2025-09-30 15h12.30.538870 +0530
178,0,178,np.float64(0.13425925925925927),np.float64(0.26296296296296295),1,0,0,1.6930233,target',178,0,178,0,341.7140288,,5,341.7056221,341.7140288,341.7140288,0.0073089,343.3986964,np.float64(0.13425925925925927),np.float64(0.26296296296296295),1,0,0,1.6930233,target',94327,1,2025-09-30_15h12.26.204,Exp Visual Search,,2025.1.1,59.94208396,2025-09-30 15h12.30.538870 +0530
181,0,181,np.float64(0.36018518518518516),np.float64(0.03981481481481482),1,0,0,2.574247,target',181,0,181,0,347.0318315,,5,347.0239091,347.0318315,347.0318315,0.0092402,349.5982021,np.float64(0.36018518518518516),np.float64(0.03981481481481482),1,0,0,2.574247,target',94327,1,2025-09-30_15h12.26.204,Exp Visual Search,,2025.1.1,59.94208396,2025-09-30 15h12.30.538870 +0530
183,0,183,np.float64(-0.15462962962962962),np.float64(-0.21481481481481482),1,0,0,1.6743029,target',183,0,183,0,351.4482248,,5,351.4401402,351.4482248,351.4482248,0.0087463,353.1144945,np.float64(-0.15462962962962962),np.float64(-0.21481481481481482),1,0,0,1.6743029,target',94327,1,2025-09-30_15h12.26.204,Exp Visual Search,,2025.1.1,59.94208396,2025-09-30 15h12.30.538870 +0530
185,0,185,np.float64(0.40555555555555556),np.float64(0.22037037037037038),1,0,0,1.5256758,target',185,0,185,0,354.8467595,,5,354.8385468,354.8467595,354.8467595,0.0075126,356.3642856,np.float64(0.40555555555555556),np.float64(0.22037037037037038),1,0,0,1.5256758,target',94327,1,2025-09-30_15h12.26.204,Exp Visual Search,,2025.1.1,59.94208396,2025-09-30 15h12.30.538870 +0530
187,0,187,np.float64(-0.08148148148148149),np.float64(-0.25925925925925924),1,0,0,1.6425044,target',187,0,187,0,357.8964239,,5,357.8882876,357.8964239,357.8964239,0.0075575,359.5308395,np.float64(-0.08148148148148149),np.float64(-0.25925925925925924),1,0,0,1.6425044,target',94327,1,2025-09-30_15h12.26.204,Exp Visual Search,,2025.1.1,59.94208396,2025-09-30 15h12.30.538870 +0530
188,0,188,np.float64(0.33055555555555555),np.float64(0.04722222222222222),1,0,0,1.8067637,target',188,0,188,0,359.5482625,,5,359.5401036,359.5482625,359.5482625,0.0091768,361.3469133,np.float64(0.33055555555555555),np.float64(0.04722222222222222),1,0,0,1.8067637,target',94327,1,2025-09-30_15h12.26.204,Exp Visual Search,,2025.1.1,59.94208396,2025-09-30 15h12.30.538870 +0530
189,0,189,np.float64(-0.1425925925925926),np.float64(0.48055555555555557),1,0,0,4.0084667,target',189,0,189,0,361.3627348,,5,361.3547462,361.3627348,361.3627348,0.007755,365.363258,np.float64(-0.1425925925925926),np.float64(0.48055555555555557),1,0,0,4.0084667,target',94327,1,2025-09-30_15h12.26.204,Exp Visual Search,,2025.1.1,59.94208396,2025-09-30 15h12.30.538870 +0530
191,0,191,np.float64(0.2759259259259259),np.float64(-0.4101851851851852),1,0,0,1.976478,target',191,0,191,0,370.9456433,,5,370.9373009,370.9456433,370.9456433,0.0074525,372.913868,np.float64(0.2759259259259259),np.float64(-0.4101851851851852),1,0,0,1.976478,target',94327,1,2025-09-30_15h12.26.204,Exp Visual Search,,2025.1.1,59.94208396,2025-09-30 15h12.30.538870 +0530
192,0,192,np.float64(-0.20277777777777778),np.float64(0.30648148148148147),1,0,0,2.6394762,target',192,0,192,0,372.9301647,,5,372.9232041,372.9301647,372.9301647,0.0091548,375.562726,np.float64(-0.20277777777777778),np.float64(0.30648148148148147),1,0,0,2.6394762,target',94327,1,2025-09-30_15h12.26.204,Exp Visual Search,,2025.1.1,59.94208396,2025-09-30 15h12.30.538870 +0530
193,0,193,np.float64(-0.36944444444444446),np.float64(0.018518518518518517),1,0,0,1.4093764,target',193,0,193,0,375.5786645,,5,375.5705234,375.5786645,375.5786645,0.0077289,376.9799457,np.float64(-0.36944444444444446),np.float64(0.018518518518518517),1,0,0,1.4093764,target',94327,1,2025-09-30_15h12.26.204,Exp Visual Search,,2025.1.1,59.94208396,2025-09-30 15h12.30.538870 +0530
194,0,194,np.float64(-0.2601851851851852),np.float64(-0.2074074074074074),1,0,0,1.4575614,target',194,0,194,0,376.9953512,,5,376.9883654,376.9953512,376.9953512,0.0083246,378.445971,np.float64(-0.2601851851851852),np.float64(-0.2074074074074074),1,0,0,1.4575614,target',94327,1,2025-09-30_15h12.26.204,Exp Visual Search,,2025.1.1,59.94208396,2025-09-30 15h12.30.538870 +0530
195,0,195,np.float64(0.2861111111111111),np.float64(0.17962962962962964),1,0,0,1.9585127,target',195,0,195,0,378.4618256,,5,378.4539922,378.4618256,378.4618256,0.007934,380.4125833,np.float64(0.2861111111111111),np.float64(0.17962962962962964),1,0,0,1.9585127,target',94327,1,2025-09-30_15h12.26.204,Exp Visual Search,,2025.1.1,59.94208396,2025-09-30 15h12.30.538870 +0530
197,0,197,np.float64(0.37037037037037035),np.float64(-0.20555555555555555),1,0,0,1.9752573,target',197,0,197,0,382.4455064,,5,382.4375184,382.4455064,382.4455064,0.0080835,384.4128546,np.float64(0.37037037037037035),np.float64(-0.20555555555555555),1,0,0,1.9752573,target',94327,1,2025-09-30_15h12.26.204,Exp Visual Search,,2025.1.1,59.94208396,2025-09-30 15h12.30.538870 +0530
0,0,0,np.float64(0.19166666666666668),np.float64(-0.2037037037037037),1,0,0,1.7980167,target',0,0,0,0,0.0364596,,10,0.0251491,0.0364596,0.0364596,0.0251765,1.8232592,np.float64(0.19166666666666668),np.float64(-0.2037037037037037),1,0,0,1.7980167,target',94327,1,2025-09-30_15h12.26.204,Exp Visual Search,,2025.1.1,59.94208396,2025-09-30 15h12.30.538870 +0530
1,0,1,np.float64(-0.3685185185185185),np.float64(0.4648148148148148),1,0,0,5.6553172,target',1,0,1,0,1.8588362,,10,1.8470964,1.8588362,1.8588362,0.0236238,7.5024659,np.float64(-0.3685185185185185),np.float64(0.4648148148148148),1,0,0,5.6553172,target',94327,1,2025-09-30_15h12.26.204,Exp Visual Search,,2025.1.1,59.94208396,2025-09-30 15h12.30.538870 +0530
4,0,4,np.float64(0.31574074074074077),np.float64(0.47962962962962963),1,0,0,2.0516568,target',4,0,4,0,11.6754327,,10,11.6665971,11.6754327,11.6754327,0.0150186,13.7183039,np.float64(0.31574074074074077),np.float64(0.47962962962962963),1,0,0,2.0516568,target',94327,1,2025-09-30_15h12.26.204,Exp Visual Search,,2025.1.1,59.94208396,2025-09-30 15h12.30.538870 +0530
8,0,8,np.float64(-0.004629629629629629),np.float64(-0.062037037037037036),1,0,0,7.8835779,target',8,0,8,0,19.2933764,,10,19.2836824,19.2933764,19.2933764,0.0157282,27.1673024,np.float64(-0.004629629629629629),np.float64(-0.062037037037037036),1,0,0,7.8835779,target',94327,1,2025-09-30_15h12.26.204,Exp Visual Search,,2025.1.1,59.94208396,2025-09-30 15h12.30.538870 +0530
10,0,10,np.float64(-0.4444444444444444),np.float64(0.05555555555555555),1,0,0,1.965923,target',10,0,10,0,29.4620031,,10,29.4513275,29.4620031,29.4620031,0.0166596,31.4172954,np.float64(-0.4444444444444444),np.float64(0.05555555555555555),1,0,0,1.965923,target',94327,1,2025-09-30_15h12.26.204,Exp Visual Search,,2025.1.1,59.94208396,2025-09-30 15h12.30.538870 +0530
11,0,11,np.float64(0.07685185185185185),np.float64(-0.2611111111111111),1,0,0,1.9011971,target',11,0,11,0,31.4434909,,10,31.4324923,31.4434909,31.4434909,0.015106,33.3337329,np.float64(0.07685185185185185),np.float64(-0.2611111111111111),1,0,0,1.9011971,target',94327,1,2025-09-30_15h12.26.204,Exp Visual Search,,2025.1.1,59.94208396,2025-09-30 15h12.30.538870 +0530
13,0,13,np.float64(0.49444444444444446),np.float64(0.11481481481481481),1,0,0,2.1509239,target',13,0,13,0,34.9934266,,10,34.9835076,34.9934266,34.9934266,0.0165719,37.1344769,np.float64(0.49444444444444446),np.float64(0.11481481481481481),1,0,0,2.1509239,target',94327,1,2025-09-30_15h12.26.204,Exp Visual Search,,2025.1.1,59.94208396,2025-09-30 15h12.30.538870 +0530
15,0,15,np.float64(0.23425925925925925),np.float64(0.32407407407407407),1,0,0,1.2671812,target',15,0,15,0,38.5267588,,10,38.5163555,38.5267588,38.5267588,0.0159155,39.7835873,np.float64(0.23425925925925925),np.float64(0.32407407407407407),1,0,0,1.2671812,target',94327,1,2025-09-30_15h12.26.204,Exp Visual Search,,2025.1.1,59.94208396,2025-09-30 15h12.30.538870 +0530
18,0,18,np.float64(0.08425925925925926),np.float64(-0.018518518518518517),1,0,0,2.3996749,target',18,0,18,0,43.6604224,,10,43.6498533,43.6604224,43.6604224,0.0166318,46.0495718,np.float64(0.08425925925925926),np.float64(-0.018518518518518517),1,0,0,2.3996749,target',94327,1,2025-09-30_15h12.26.204,Exp Visual Search,,2025.1.1,59.94208396,2025-09-30 15h12.30.538870 +0530
20,0,20,np.float64(-0.4287037037037037),np.float64(0.4703703703703704),1,0,0,1.168441,target',20,0,20,0,47.7079877,,10,47.6977951,47.7079877,47.7079877,0.0148538,48.8663133,np.float64(-0.4287037037037037),np.float64(0.4703703703703704),1,0,0,1.168441,target',94327,1,2025-09-30_15h12.26.204,Exp Visual Search,,2025.1.1,59.94208396,2025-09-30 15h12.30.538870 +0530
21,0,21,np.float64(0.33425925925925926),np.float64(0.25),1,0,0,2.7833276,target',21,0,21,0,48.8948813,,10,48.8831612,48.8948813,48.8948813,0.0167241,51.6665519,np.float64(0.33425925925925926),np.float64(0.25),1,0,0,2.7833276,target',94327,1,2025-09-30_15h12.26.204,Exp Visual Search,,2025.1.1,59.94208396,2025-09-30 15h12.30.538870 +0530
22,0,22,np.float64(-0.15648148148148147),np.float64(0.20925925925925926),1,0,0,1.3640474,target',22,0,22,0,51.6972043,,10,51.6852953,51.6972043,51.6972043,0.0186138,53.0494102,np.float64(-0.15648148148148147),np.float64(0.20925925925925926),1,0,0,1.3640474,target',94327,1,2025-09-30_15h12.26.204,Exp Visual Search,,2025.1.1,59.94208396,2025-09-30 15h12.30.538870 +0530
23,0,23,np.float64(-0.025925925925925925),np.float64(0.3037037037037037),1,0,0,1.7819492,target',23,0,23,0,53.0784818,,10,53.0672349,53.0784818,53.0784818,0.017648,54.8492325,np.float64(-0.025925925925925925),np.float64(0.3037037037037037),1,0,0,1.7819492,target',94327,1,2025-09-30_15h12.26.204,Exp Visual Search,,2025.1.1,59.94208396,2025-09-30 15h12.30.538870 +0530
26,0,26,np.float64(0.44074074074074077),np.float64(0.33055555555555555),1,0,0,1.5621601,target',26,0,26,0,58.4475233,,10,58.4365142,58.4475233,58.4475233,0.0207426,59.9987177,np.float64(0.44074074074074077),np.float64(0.33055555555555555),1,0,0,1.5621601,target',94327,1,2025-09-30_15h12.26.204,Exp Visual Search,,2025.1.1,59.94208396,2025-09-30 15h12.30.538870 +0530
28,0,28,np.float64(0.225),np.float64(-0.10648148148148148),1,0,0,2.0184897,target',28,0,28,0,62.724558,,10,62.7135609,62.724558,62.724558,0.0149372,64.7321265,np.float64(0.225),np.float64(-0.10648148148148148),1,0,0,2.0184897,target',94327,1,2025-09-30_15h12.26.204,Exp Visual Search,,2025.1.1,59.94208396,2025-09-30 15h12.30.538870 +0530
30,0,30,np.float64(-0.2462962962962963),np.float64(0.09444444444444444),1,0,0,3.0321331,target',30,0,30,0,67.0934595,,10,67.0830472,67.0934595,67.0934595,0.0175982,70.11524,np.float64(-0.2462962962962963),np.float64(0.09444444444444444),1,0,0,3.0321331,target',94327,1,2025-09-30_15h12.26.204,Exp Visual Search,,2025.1.1,59.94208396,2025-09-30 15h12.30.538870 +0530
35,0,35,np.float64(-0.028703703703703703),np.float64(0.15),1,0,0,1.7181674,target',35,0,35,0,76.7572396,,10,76.7463748,76.7572396,76.7572396,0.0151791,78.464627,np.float64(-0.028703703703703703),np.float64(0.15),1,0,0,1.7181674,target',94327,1,2025-09-30_15h12.26.204,Exp Visual Search,,2025.1.1,59.94208396,2025-09-30 15h12.30.538870 +0530
36,0,36,np.float64(0.08055555555555556),np.float64(-0.000925925925925926),1,0,0,1.6182302,target',36,0,36,0,78.4904202,,10,78.4795884,78.4904202,78.4904202,0.0147992,80.0978628,np.float64(0.08055555555555556),np.float64(-0.000925925925925926),1,0,0,1.6182302,target',94327,1,2025-09-30_15h12.26.204,Exp Visual Search,,2025.1.1,59.94208396,2025-09-30 15h12.30.538870 +0530
41,0,41,np.float64(-0.1824074074074074),np.float64(-0.44537037037037036),1,0,0,2.4678801,target',41,0,41,0,87.7565914,,10,87.7461542,87.7565914,87.7565914,0.0156983,90.2141255,np.float64(-0.1824074074074074),np.float64(-0.44537037037037036),1,0,0,2.4678801,target',94327,1,2025-09-30_15h12.26.204,Exp Visual Search,,2025.1.1,59.94208396,2025-09-30 15h12.30.538870 +0530
42,0,42,np.float64(0.09166666666666666),np.float64(0.2675925925925926),1,0,0,2.8164629,target',42,0,42,0,90.2414621,,10,90.2303414,90.2414621,90.2414621,0.0160069,93.0468457,np.float64(0.09166666666666666),np.float64(0.2675925925925926),1,0,0,2.8164629,target',94327,1,2025-09-30_15h12.26.204,Exp Visual Search,,2025.1.1,59.94208396,2025-09-30 15h12.30.538870 +0530
43,0,43,np.float64(0.19537037037037036),np.float64(0.21574074074074073),1,0,0,3.7843671,target',43,0,43,0,93.073536,,10,93.0621905,93.073536,93.073536,0.0152425,96.846603,np.float64(0.19537037037037036),np.float64(0.21574074074074073),1,0,0,3.7843671,target',94327,1,2025-09-30_15h12.26.204,Exp Visual Search,,2025.1.1,59.94208396,2025-09-30 15h12.30.538870 +0530
44,0,44,np.float64(0.24444444444444444),np.float64(0.26481481481481484),1,0,0,1.5014578,target',44,0,44,0,96.8721893,,10,96.861677,96.8721893,96.8721893,0.0149844,98.3631784,np.float64(0.24444444444444444),np.float64(0.26481481481481484),1,0,0,1.5014578,target',94327,1,2025-09-30_15h12.26.204,Exp Visual Search,,2025.1.1,59.94208396,2025-09-30 15h12.30.538870 +0530
45,0,45,np.float64(-0.41388888888888886),np.float64(0.17777777777777778),1,0,0,2.100924,target',45,0,45,0,98.3897189,,10,98.3787232,98.3897189,98.3897189,0.0154588,100.4796936,np.float64(-0.41388888888888886),np.float64(0.17777777777777778),1,0,0,2.100924,target',94327,1,2025-09-30_15h12.26.204,Exp Visual Search,,2025.1.1,59.94208396,2025-09-30 15h12.30.538870 +0530
48,0,48,np.float64(0.019444444444444445),np.float64(-0.18425925925925926),1,0,0,2.0171442,target',48,0,48,0,104.0405661,,10,104.0293931,104.0405661,104.0405661,0.0163173,106.0465784,np.float64(0.019444444444444445),np.float64(-0.18425925925925926),1,0,0,2.0171442,target',94327,1,2025-09-30_15h12.26.204,Exp Visual Search,,2025.1.1,59.94208396,2025-09-30 15h12.30.538870 +0530
50,0,50,np.float64(0.46574074074074073),np.float64(-0.4027777777777778),1,0,0,2.3684734,target',50,0,50,0,110.0717417,,10,110.0607583,110.0717417,110.0717417,0.0148895,112.4293099,np.float64(0.46574074074074073),np.float64(-0.4027777777777778),1,0,0,2.3684734,target',94327,1,2025-09-30_15h12.26.204,Exp Visual Search,,2025.1.1,59.94208396,2025-09-30 15h12.30.538870 +0530
53,0,53,np.float64(0.008333333333333333),np.float64(0.462037037037037),1,0,0,2.4155327,target',53,0,53,0,115.838977,,10,115.8294779,115.838977,115.838977,0.017094,118.2450564,np.float64(0.008333333333333333),np.float64(0.462037037037037),1,0,0,2.4155327,target',94327,1,2025-09-30_15h12.26.204,Exp Visual Search,,2025.1.1,59.94208396,2025-09-30 15h12.30.538870 +0530
54,0,54,np.float64(0.001851851851851852),np.float64(0.24444444444444444),1,0,0,1.6021459,target',54,0,54,0,118.2686932,,10,118.2596694,118.2686932,118.2686932,0.0145211,119.8618611,np.float64(0.001851851851851852),np.float64(0.24444444444444444),1,0,0,1.6021459,target',94327,1,2025-09-30_15h12.26.204,Exp Visual Search,,2025.1.1,59.94208396,2025-09-30 15h12.30.538870 +0530
59,0,59,np.float64(0.03518518518518519),np.float64(-0.17685185185185184),1,0,0,1.2690996,target',59,0,59,0,126.4016351,,10,126.3923835,126.4016351,126.4016351,0.0143691,127.6615125,np.float64(0.03518518518518519),np.float64(-0.17685185185185184),1,0,0,1.2690996,target',94327,1,2025-09-30_15h12.26.204,Exp Visual Search,,2025.1.1,59.94208396,2025-09-30 15h12.30.538870 +0530
60,0,60,np.float64(-0.08333333333333333),np.float64(-0.03611111111111111),1,0,0,1.2681038,target',60,0,60,0,127.6860621,,10,127.6765768,127.6860621,127.6860621,0.0149762,128.9447273,np.float64(-0.08333333333333333),np.float64(-0.03611111111111111),1,0,0,1.2681038,target',94327,1,2025-09-30_15h12.26.204,Exp Visual Search,,2025.1.1,59.94208396,2025-09-30 15h12.30.538870 +0530
62,0,62,np.float64(0.25555555555555554),np.float64(-0.18333333333333332),1,0,0,1.8522734,target',62,0,62,0,130.688116,,10,130.675532,130.688116,130.688116,0.0144488,132.5278404,np.float64(0.25555555555555554),np.float64(-0.18333333333333332),1,0,0,1.8522734,target',94327,1,2025-09-30_15h12.26.204,Exp Visual Search,,2025.1.1,59.94208396,2025-09-30 15h12.30.538870 +0530
67,0,67,np.float64(0.13425925925925927),np.float64(0.45185185185185184),1,0,0,1.4017206,target',67,0,67,0,139.3694771,,10,139.3591644,139.3694771,139.3694771,0.0151374,140.7610225,np.float64(0.13425925925925927),np.float64(0.45185185185185184),1,0,0,1.4017206,target',94327,1,2025-09-30_15h12.26.204,Exp Visual Search,,2025.1.1,59.94208396,2025-09-30 15h12.30.538870 +0530
70,0,70,np.float64(-0.11203703703703703),np.float64(-0.2824074074074074),1,0,0,1.768288,target',70,0,70,0,143.8688331,,10,143.8582303,143.8688331,143.8688331,0.0145907,145.6265641,np.float64(-0.11203703703703703),np.float64(-0.2824074074074074),1,0,0,1.768288,target',94327,1,2025-09-30_15h12.26.204,Exp Visual Search,,2025.1.1,59.94208396,2025-09-30 15h12.30.538870 +0530
73,0,73,np.float64(-0.4351851851851852),np.float64(0.30925925925925923),1,0,0,1.4811157,target',73,0,73,0,148.5231386,,10,148.5124211,148.5231386,148.5231386,0.0185756,149.9935835,np.float64(-0.4351851851851852),np.float64(0.30925925925925923),1,0,0,1.4811157,target',94327,1,2025-09-30_15h12.26.204,Exp Visual Search,,2025.1.1,59.94208396,2025-09-30 15h12.30.538870 +0530
75,0,75,np.float64(0.012962962962962963),np.float64(0.33240740740740743),1,0,0,1.7340694,target',75,0,75,0,151.8516484,,10,151.8424253,151.8516484,151.8516484,0.0157794,153.5765479,np.float64(0.012962962962962963),np.float64(0.33240740740740743),1,0,0,1.7340694,target',94327,1,2025-09-30_15h12.26.204,Exp Visual Search,,2025.1.1,59.94208396,2025-09-30 15h12.30.538870 +0530
77,0,77,np.float64(-0.24074074074074073),np.float64(-0.22037037037037038),1,0,0,1.449412,target',77,0,77,0,156.0189257,,10,156.0098839,156.0189257,156.0189257,0.0165217,157.4593459,np.float64(-0.24074074074074073),np.float64(-0.22037037037037038),1,0,0,1.449412,target',94327,1,2025-09-30_15h12.26.204,Exp Visual Search,,2025.1.1,59.94208396,2025-09-30 15h12.30.538870 +0530
78,0,78,np.float64(-0.07592592592592592),np.float64(-0.3731481481481482),1,0,0,1.6824751,target',78,0,78,0,157.4860617,,10,157.4766693,157.4860617,157.4860617,0.0172227,159.1591926,np.float64(-0.07592592592592592),np.float64(-0.3731481481481482),1,0,0,1.6824751,target',94327,1,2025-09-30_15h12.26.204,Exp Visual Search,,2025.1.1,59.94208396,2025-09-30 15h12.30.538870 +0530
82,0,82,np.float64(0.47129629629629627),np.float64(0.1935185185185185),1,0,0,1.9665625,target',82,0,82,0,163.9845497,,10,163.9757025,163.9845497,163.9845497,0.0163225,165.9423059,np.float64(0.47129629629629627),np.float64(0.1935185185185185),1,0,0,1.9665625,target',94327,1,2025-09-30_15h12.26.204,Exp Visual Search,,2025.1.1,59.94208396,2025-09-30 15h12.30.538870 +0530
91,0,91,np.float64(-0.11388888888888889),np.float64(-0.03981481481481482),1,0,0,1.8181974,target',91,0,91,0,179.8844047,,10,179.8732383,179.8844047,179.8844047,0.0151198,181.691481,np.float64(-0.11388888888888889),np.float64(-0.03981481481481482),1,0,0,1.8181974,target',94327,1,2025-09-30_15h12.26.204,Exp Visual Search,,2025.1.1,59.94208396,2025-09-30 15h12.30.538870 +0530
92,0,92,np.float64(-0.46296296296296297),np.float64(-0.017592592592592594),1,0,0,2.4359473,target',92,0,92,0,181.7166981,,10,181.7063388,181.7166981,181.7166981,0.0147514,184.1423285,np.float64(-0.46296296296296297),np.float64(-0.017592592592592594),1,0,0,2.4359473,target',94327,1,2025-09-30_15h12.26.204,Exp Visual Search,,2025.1.1,59.94208396,2025-09-30 15h12.30.538870 +0530
95,0,95,np.float64(0.2388888888888889),np.float64(-0.43703703703703706),1,0,0,2.2340204,target',95,0,95,0,187.5838862,,10,187.5734311,187.5838862,187.5838862,0.0156094,189.8074965,np.float64(0.2388888888888889),np.float64(-0.43703703703703706),1,0,0,2.2340204,target',94327,1,2025-09-30_15h12.26.204,Exp Visual Search,,2025.1.1,59.94208396,2025-09-30 15h12.30.538870 +0530
97,0,97,np.float64(-0.10740740740740741),np.float64(0.412962962962963),1,0,0,1.4646123,target',97,0,97,0,191.7680984,,10,191.7592768,191.7680984,191.7680984,0.0175234,193.223949,np.float64(-0.10740740740740741),np.float64(0.412962962962963),1,0,0,1.4646123,target',94327,1,2025-09-30_15h12.26.204,Exp Visual Search,,2025.1.1,59.94208396,2025-09-30 15h12.30.538870 +0530
99,0,99,np.float64(0.3861111111111111),np.float64(-0.4166666666666667),1,0,0,2.1178813,target',99,0,99,0,194.865472,,10,194.8564186,194.865472,194.865472,0.0153621,196.9743905,np.float64(0.3861111111111111),np.float64(-0.4166666666666667),1,0,0,2.1178813,target',94327,1,2025-09-30_15h12.26.204,Exp Visual Search,,2025.1.1,59.94208396,2025-09-30 15h12.30.538870 +0530
100,0,100,np.float64(-0.19722222222222222),np.float64(0.3787037037037037),1,0,0,3.0806553,target',100,0,100,0,197.0017275,,10,196.9930155,197.0017275,197.0017275,0.0184079,200.0737243,np.float64(-0.19722222222222222),np.float64(0.3787037037037037),1,0,0,3.0806553,target',94327,1,2025-09-30_15h12.26.204,Exp Visual Search,,2025.1.1,59.94208396,2025-09-30 15h12.30.538870 +0530
101,0,101,np.float64(-0.10462962962962963),np.float64(0.37592592592592594),1,0,0,1.20063,target',101,0,101,0,200.0992223,,10,200.0901853,200.0992223,200.0992223,0.0163447,201.2908618,np.float64(-0.10462962962962963),np.float64(0.37592592592592594),1,0,0,1.20063,target',94327,1,2025-09-30_15h12.26.204,Exp Visual Search,,2025.1.1,59.94208396,2025-09-30 15h12.30.538870 +0530
102,0,102,np.float64(0.3194444444444444),np.float64(-0.2814814814814815),1,0,0,1.7319555,target',102,0,102,0,201.3182081,,10,201.3084283,201.3182081,201.3182081,0.0174611,203.0404328,np.float64(0.3194444444444444),np.float64(-0.2814814814814815),1,0,0,1.7319555,target',94327,1,2025-09-30_15h12.26.204,Exp Visual Search,,2025.1.1,59.94208396,2025-09-30 15h12.30.538870 +0530
103,0,103,np.float64(0.13333333333333333),np.float64(0.4009259259259259),1,0,0,1.4164043,target',103,0,103,0,203.0661787,,10,203.0570248,203.0661787,203.0661787,0.0164938,204.4734707,np.float64(0.13333333333333333),np.float64(0.4009259259259259),1,0,0,1.4164043,target',94327,1,2025-09-30_15h12.26.204,Exp Visual Search,,2025.1.1,59.94208396,2025-09-30 15h12.30.538870 +0530
104,0,104,np.float64(0.44351851851851853),np.float64(-0.23981481481481481),1,0,0,1.684771,target',104,0,104,0,204.4976351,,10,204.488697,204.4976351,204.4976351,0.0151302,206.1735164,np.float64(0.44351851851851853),np.float64(-0.23981481481481481),1,0,0,1.684771,target',94327,1,2025-09-30_15h12.26.204,Exp Visual Search,,2025.1.1,59.94208396,2025-09-30 15h12.30.538870 +0530
111,0,111,np.float64(0.2916666666666667),np.float64(-0.287962962962963),1,0,0,1.9338154,target',111,0,111,0,218.1141734,,10,218.1054648,218.1141734,218.1141734,0.0163033,220.0393425,np.float64(0.2916666666666667),np.float64(-0.287962962962963),1,0,0,1.9338154,target',94327,1,2025-09-30_15h12.26.204,Exp Visual Search,,2025.1.1,59.94208396,2025-09-30 15h12.30.538870 +0530
114,0,114,np.float64(0.2222222222222222),np.float64(0.2657407407407407),1,0,0,1.5643342,target',114,0,114,0,223.2505533,,10,223.241222,223.2505533,223.2505533,0.0189639,224.8055966,np.float64(0.2222222222222222),np.float64(0.2657407407407407),1,0,0,1.5643342,target',94327,1,2025-09-30_15h12.26.204,Exp Visual Search,,2025.1.1,59.94208396,2025-09-30 15h12.30.538870 +0530
117,0,117,np.float64(-0.012962962962962963),np.float64(-0.12037037037037036),1,0,0,1.1502469,target',117,0,117,0,227.9488883,,10,227.9384526,227.9488883,227.9488883,0.0165991,229.0887622,np.float64(-0.012962962962962963),np.float64(-0.12037037037037036),1,0,0,1.1502469,target',94327,1,2025-09-30_15h12.26.204,Exp Visual Search,,2025.1.1,59.94208396,2025-09-30 15h12.30.538870 +0530
118,0,118,np.float64(-0.2324074074074074),np.float64(-0.28425925925925927),1,0,0,1.5500993,target',118,0,118,0,229.1162675,,10,229.1051218,229.1162675,229.1162675,0.0162162,230.6553112,np.float64(-0.2324074074074074),np.float64(-0.28425925925925927),1,0,0,1.5500993,target',94327,1,2025-09-30_15h12.26.204,Exp Visual Search,,2025.1.1,59.94208396,2025-09-30 15h12.30.538870 +0530
121,0,121,np.float64(0.42314814814814816),np.float64(-0.20555555555555555),1,0,0,2.0847042,target',121,0,121,0,233.5815302,,10,233.5706427,233.5815302,233.5815302,0.0156728,235.6554434,np.float64(0.42314814814814816),np.float64(-0.20555555555555555),1,0,0,2.0847042,target',94327,1,2025-09-30_15h12.26.204,Exp Visual Search,,2025.1.1,59.94208396,2025-09-30 15h12.30.538870 +0530
122,0,122,np.float64(0.3398148148148148),np.float64(-0.41388888888888886),1,0,0,1.4157073,target',122,0,122,0,235.6831201,,10,235.6724933,235.6831201,235.6831201,0.0168352,237.0882577,np.float64(0.3398148148148148),np.float64(-0.41388888888888886),1,0,0,1.4157073,target',94327,1,2025-09-30_15h12.26.204,Exp Visual Search,,2025.1.1,59.94208396,2025-09-30 15h12.30.538870 +0530
123,0,123,np.float64(0.18518518518518517),np.float64(-0.38796296296296295),1,0,0,2.4667332,target',123,0,123,0,237.1146985,,10,237.1042396,237.1146985,237.1146985,0.0158929,239.5710307,np.float64(0.18518518518518517),np.float64(-0.38796296296296295),1,0,0,2.4667332,target',94327,1,2025-09-30_15h12.26.204,Exp Visual Search,,2025.1.1,59.94208396,2025-09-30 15h12.30.538870 +0530
124,0,124,np.float64(-0.2037037037037037),np.float64(0.08148148148148149),1,0,0,1.7841164,target',124,0,124,0,239.5989948,,10,239.5867121,239.5989948,239.5989948,0.0155557,241.3708824,np.float64(-0.2037037037037037),np.float64(0.08148148148148149),1,0,0,1.7841164,target',94327,1,2025-09-30_15h12.26.204,Exp Visual Search,,2025.1.1,59.94208396,2025-09-30 15h12.30.538870 +0530
125,0,125,np.float64(-0.3861111111111111),np.float64(-0.40555555555555556),1,0,0,1.5170474,target',125,0,125,0,241.3967487,,10,241.387347,241.3967487,241.3967487,0.0163789,242.9044736,np.float64(-0.3861111111111111),np.float64(-0.40555555555555556),1,0,0,1.5170474,target',94327,1,2025-09-30_15h12.26.204,Exp Visual Search,,2025.1.1,59.94208396,2025-09-30 15h12.30.538870 +0530
126,0,126,np.float64(0.275),np.float64(0.32037037037037036),1,0,0,3.2999702,target',126,0,126,0,242.9331399,,10,242.921707,242.9331399,242.9331399,0.0170557,246.221776,np.float64(0.275),np.float64(0.32037037037037036),1,0,0,3.2999702,target',94327,1,2025-09-30_15h12.26.204,Exp Visual Search,,2025.1.1,59.94208396,2025-09-30 15h12.30.538870 +0530
132,0,132,np.float64(0.044444444444444446),np.float64(-0.2824074074074074),1,0,0,1.9330934,target',132,0,132,0,254.346965,,10,254.3379682,254.346965,254.346965,0.0169488,256.271146,np.float64(0.044444444444444446),np.float64(-0.2824074074074074),1,0,0,1.9330934,target',94327,1,2025-09-30_15h12.26.204,Exp Visual Search,,2025.1.1,59.94208396,2025-09-30 15h12.30.538870 +0530
133,0,133,np.float64(0.012037037037037037),np.float64(0.4287037037037037),1,0,0,2.3484945,target',133,0,133,0,256.2973253,,10,256.2884368,256.2973253,256.2973253,0.0170858,258.6369868,np.float64(0.012037037037037037),np.float64(0.4287037037037037),1,0,0,2.3484945,target',94327,1,2025-09-30_15h12.26.204,Exp Visual Search,,2025.1.1,59.94208396,2025-09-30 15h12.30.538870 +0530
134,0,134,np.float64(-0.15833333333333333),np.float64(0.2601851851851852),1,0,0,1.599982,target',134,0,134,0,258.6630935,,10,258.6535659,258.6630935,258.6630935,0.0164519,260.2535899,np.float64(-0.15833333333333333),np.float64(0.2601851851851852),1,0,0,1.599982,target',94327,1,2025-09-30_15h12.26.204,Exp Visual Search,,2025.1.1,59.94208396,2025-09-30 15h12.30.538870 +0530
137,0,137,np.float64(0.3851851851851852),np.float64(0.4648148148148148),1,0,0,1.6162424,target',137,0,137,0,263.247891,,10,263.2366419,263.247891,263.247891,0.0171795,264.8529113,np.float64(0.3851851851851852),np.float64(0.4648148148148148),1,0,0,1.6162424,target',94327,1,2025-09-30_15h12.26.204,Exp Visual Search,,2025.1.1,59.94208396,2025-09-30 15h12.30.538870 +0530
139,0,139,np.float64(-0.4546296296296296),np.float64(0.21296296296296297),1,0,0,2.3322224,target',139,0,139,0,266.8483705,,10,266.8371105,266.8483705,266.8483705,0.0173315,269.1693745,np.float64(-0.4546296296296296),np.float64(0.21296296296296297),1,0,0,2.3322224,target',94327,1,2025-09-30_15h12.26.204,Exp Visual Search,,2025.1.1,59.94208396,2025-09-30 15h12.30.538870 +0530
140,0,140,np.float64(-0.016666666666666666),np.float64(0.2351851851851852),1,0,0,1.6847374,target',140,0,140,0,269.1931278,,10,269.1842787,269.1931278,269.1931278,0.0148072,270.8690623,np.float64(-0.016666666666666666),np.float64(0.2351851851851852),1,0,0,1.6847374,target',94327,1,2025-09-30_15h12.26.204,Exp Visual Search,,2025.1.1,59.94208396,2025-09-30 15h12.30.538870 +0530
146,0,146,np.float64(0.26944444444444443),np.float64(0.45555555555555555),1,0,0,1.4512477,target',146,0,146,0,279.5594692,,10,279.550707,279.5594692,279.5594692,0.0153012,281.0020007,np.float64(0.26944444444444443),np.float64(0.45555555555555555),1,0,0,1.4512477,target',94327,1,2025-09-30_15h12.26.204,Exp Visual Search,,2025.1.1,59.94208396,2025-09-30 15h12.30.538870 +0530
149,0,149,np.float64(-0.2175925925925926),np.float64(-0.20092592592592592),1,0,0,1.697245,target',149,0,149,0,284.5647514,,10,284.5545195,284.5647514,284.5647514,0.018609,286.2518259,np.float64(-0.2175925925925926),np.float64(-0.20092592592592592),1,0,0,1.697245,target',94327,1,2025-09-30_15h12.26.204,Exp Visual Search,,2025.1.1,59.94208396,2025-09-30 15h12.30.538870 +0530
150,0,150,np.float64(-0.27870370370370373),np.float64(-0.4166666666666667),1,0,0,1.9661988,target',150,0,150,0,286.2775151,,10,286.2687546,286.2775151,286.2775151,0.0168034,288.2349977,np.float64(-0.27870370370370373),np.float64(-0.4166666666666667),1,0,0,1.9661988,target',94327,1,2025-09-30_15h12.26.204,Exp Visual Search,,2025.1.1,59.94208396,2025-09-30 15h12.30.538870 +0530
152,0,152,np.float64(-0.33611111111111114),np.float64(0.14351851851851852),1,0,0,0.5986066,target',152,0,152,0,290.0283457,,10,290.0194329,290.0283457,290.0283457,0.0174851,290.61808,np.float64(-0.33611111111111114),np.float64(0.14351851851851852),1,0,0,0.5986066,target',94327,1,2025-09-30_15h12.26.204,Exp Visual Search,,2025.1.1,59.94208396,2025-09-30 15h12.30.538870 +0530
153,0,153,np.float64(0.44537037037037036),np.float64(-0.46111111111111114),1,0,0,2.9014023,target',153,0,153,0,290.6429314,,10,290.6339395,290.6429314,290.6429314,0.0157765,293.535432,np.float64(0.44537037037037036),np.float64(-0.46111111111111114),1,0,0,2.9014023,target',94327,1,2025-09-30_15h12.26.204,Exp Visual Search,,2025.1.1,59.94208396,2025-09-30 15h12.30.538870 +0530
154,0,154,np.float64(0.1935185185185185),np.float64(-0.3111111111111111),1,0,0,2.1321267,target',154,0,154,0,293.5615995,,10,293.5526145,293.5615995,293.5615995,0.0169751,295.6848072,np.float64(0.1935185185185185),np.float64(-0.3111111111111111),1,0,0,2.1321267,target',94327,1,2025-09-30_15h12.26.204,Exp Visual Search,,2025.1.1,59.94208396,2025-09-30 15h12.30.538870 +0530
160,0,160,np.float64(-0.3194444444444444),np.float64(0.003703703703703704),1,0,0,1.4332367,target',160,0,160,0,304.0945831,,10,304.0835973,304.0945831,304.0945831,0.0162921,305.5168905,np.float64(-0.3194444444444444),np.float64(0.003703703703703704),1,0,0,1.4332367,target',94327,1,2025-09-30_15h12.26.204,Exp Visual Search,,2025.1.1,59.94208396,2025-09-30 15h12.30.538870 +0530
161,0,161,np.float64(0.3990740740740741),np.float64(0.2851851851851852),1,0,0,2.4983115,target',161,0,161,0,305.5471938,,10,305.5358915,305.5471938,305.5471938,0.0189119,308.0342699,np.float64(0.3990740740740741),np.float64(0.2851851851851852),1,0,0,2.4983115,target',94327,1,2025-09-30_15h12.26.204,Exp Visual Search,,2025.1.1,59.94208396,2025-09-30 15h12.30.538870 +0530
162,0,162,np.float64(0.12037037037037036),np.float64(-0.4666666666666667),1,0,0,2.6311809,target',162,0,162,0,308.06306,,10,308.0523393,308.06306,308.06306,0.0179302,310.6835678,np.float64(0.12037037037037036),np.float64(-0.4666666666666667),1,0,0,2.6311809,target',94327,1,2025-09-30_15h12.26.204,Exp Visual Search,,2025.1.1,59.94208396,2025-09-30 15h12.30.538870 +0530
163,0,163,np.float64(0.46296296296296297),np.float64(0.15),1,0,0,2.2830779,target',163,0,163,0,310.7125462,,10,310.700451,310.7125462,310.7125462,0.0167864,312.9835699,np.float64(0.46296296296296297),np.float64(0.15),1,0,0,2.2830779,target',94327,1,2025-09-30_15h12.26.204,Exp Visual Search,,2025.1.1,59.94208396,2025-09-30 15h12.30.538870 +0530
168,0,168,np.float64(0.41388888888888886),np.float64(-0.47129629629629627),1,0,0,2.0498348,target',168,0,168,0,319.6441887,,10,319.6327477,319.6441887,319.6441887,0.0166192,321.6826332,np.float64(0.41388888888888886),np.float64(-0.47129629629629627),1,0,0,2.0498348,target',94327,1,2025-09-30_15h12.26.204,Exp Visual Search,,2025.1.1,59.94208396,2025-09-30 15h12.30.538870 +0530
170,0,170,np.float64(-0.22592592592592592),np.float64(0.16666666666666666),1,0,0,2.5320654,target',170,0,170,0,323.4469474,,10,323.4343087,323.4469474,323.4469474,0.0177909,325.9664552,np.float64(-0.22592592592592592),np.float64(0.16666666666666666),1,0,0,2.5320654,target',94327,1,2025-09-30_15h12.26.204,Exp Visual Search,,2025.1.1,59.94208396,2025-09-30 15h12.30.538870 +0530
172,0,172,np.float64(-0.06666666666666667),np.float64(0.11481481481481481),1,0,0,1.7458141,target',172,0,172,0,328.2312346,,10,328.2200843,328.2312346,328.2312346,0.0207765,329.9659384,np.float64(-0.06666666666666667),np.float64(0.11481481481481481),1,0,0,1.7458141,target',94327,1,2025-09-30_15h12.26.204,Exp Visual Search,,2025.1.1,59.94208396,2025-09-30 15h12.30.538870 +0530
173,0,173,np.float64(0.37592592592592594),np.float64(0.46296296296296297),1,0,0,2.4816129,target',173,0,173,0,329.9947624,,10,329.9843023,329.9947624,329.9947624,0.0182536,332.4659592,np.float64(0.37592592592592594),np.float64(0.46296296296296297),1,0,0,2.4816129,target',94327,1,2025-09-30_15h12.26.204,Exp Visual Search,,2025.1.1,59.94208396,2025-09-30 15h12.30.538870 +0530
174,0,174,np.float64(0.47314814814814815),np.float64(0.3675925925925926),1,0,0,1.3517006,target',174,0,174,0,332.4919904,,10,332.4805811,332.4919904,332.4919904,0.0145679,333.8323317,np.float64(0.47314814814814815),np.float64(0.3675925925925926),1,0,0,1.3517006,target',94327,1,2025-09-30_15h12.26.204,Exp Visual Search,,2025.1.1,59.94208396,2025-09-30 15h12.30.538870 +0530
176,0,176,np.float64(0.46944444444444444),np.float64(-0.10277777777777777),1,0,0,3.2355421,target',176,0,176,0,335.9737532,,10,335.9630303,335.9737532,335.9737532,0.0143929,339.1986304,np.float64(0.46944444444444444),np.float64(-0.10277777777777777),1,0,0,3.2355421,target',94327,1,2025-09-30_15h12.26.204,Exp Visual Search,,2025.1.1,59.94208396,2025-09-30 15h12.30.538870 +0530
177,0,177,np.float64(0.2),np.float64(0.3333333333333333),1,0,0,2.482762,target',177,0,177,0,339.2260668,,10,339.2154018,339.2260668,339.2260668,0.0166278,341.6982136,np.float64(0.2),np.float64(0.3333333333333333),1,0,0,2.482762,target',94327,1,2025-09-30_15h12.26.204,Exp Visual Search,,2025.1.1,59.94208396,2025-09-30 15h12.30.538870 +0530
179,0,179,np.float64(0.15185185185185185),np.float64(-0.1824074074074074),1,0,0,2.0168157,target',179,0,179,0,343.4258399,,10,343.4145896,343.4258399,343.4258399,0.0158197,345.4314747,np.float64(0.15185185185185185),np.float64(-0.1824074074074074),1,0,0,2.0168157,target',94327,1,2025-09-30_15h12.26.204,Exp Visual Search,,2025.1.1,59.94208396,2025-09-30 15h12.30.538870 +0530
180,0,180,np.float64(0.08796296296296297),np.float64(-0.032407407407407406),1,0,0,1.5637731,target',180,0,180,0,345.4606286,,10,345.4507259,345.4606286,345.4606286,0.0191327,347.0145477,np.float64(0.08796296296296297),np.float64(-0.032407407407407406),1,0,0,1.5637731,target',94327,1,2025-09-30_15h12.26.204,Exp Visual Search,,2025.1.1,59.94208396,2025-09-30 15h12.30.538870 +0530
182,0,182,np.float64(0.26851851851851855),np.float64(0.15833333333333333),1,0,0,1.8171885,target',182,0,182,0,349.6243463,,10,349.6140514,349.6243463,349.6243463,0.0157765,351.4312918,np.float64(0.26851851851851855),np.float64(0.15833333333333333),1,0,0,1.8171885,target',94327,1,2025-09-30_15h12.26.204,Exp Visual Search,,2025.1.1,59.94208396,2025-09-30 15h12.30.538870 +0530
184,0,184,np.float64(0.026851851851851852),np.float64(0.3824074074074074),1,0,0,1.7002196,target',184,0,184,0,353.1416264,,10,353.1306536,353.1416264,353.1416264,0.016082,354.8309219,np.float64(0.026851851851851852),np.float64(0.3824074074074074),1,0,0,1.7002196,target',94327,1,2025-09-30_15h12.26.204,Exp Visual Search,,2025.1.1,59.94208396,2025-09-30 15h12.30.538870 +0530
186,0,186,np.float64(0.22962962962962963),np.float64(-0.04722222222222222),1,0,0,1.4981735,target',186,0,186,0,356.3931458,,10,356.382424,356.3931458,356.3931458,0.0180025,357.8806432,np.float64(0.22962962962962963),np.float64(-0.04722222222222222),1,0,0,1.4981735,target',94327,1,2025-09-30_15h12.26.204,Exp Visual Search,,2025.1.1,59.94208396,2025-09-30 15h12.30.538870 +0530
190,0,190,np.float64(0.4583333333333333),np.float64(0.32222222222222224),1,0,0,5.5503412,target',190,0,190,0,365.3883439,,10,365.3793783,365.3883439,365.3883439,0.016045,370.9297625,np.float64(0.4583333333333333),np.float64(0.32222222222222224),1,0,0,5.5503412,target',94327,1,2025-09-30_15h12.26.204,Exp Visual Search,,2025.1.1,59.94208396,2025-09-30 15h12.30.538870 +0530
196,0,196,np.float64(-0.3814814814814815),np.float64(0.29259259259259257),1,0,0,1.9962203,target',196,0,196,0,380.4420417,,10,380.4330722,380.4420417,380.4420417,0.020402,382.4293376,np.float64(-0.3814814814814815),np.float64(0.29259259259259257),1,0,0,1.9962203,target',94327,1,2025-09-30_15h12.26.204,Exp Visual Search,,2025.1.1,59.94208396,2025-09-30 15h12.30.538870 +0530
198,0,198,np.float64(0.3537037037037037),np.float64(-0.42407407407407405),1,0,0,1.2488365,target',198,0,198,0,384.4406192,,10,384.4302443,384.4406192,384.4406192,0.0172441,385.6791231,np.float64(0.3537037037037037),np.float64(-0.42407407407407405),1,0,0,1.2488365,target',94327,1,2025-09-30_15h12.26.204,Exp Visual Search,,2025.1.1,59.94208396,2025-09-30 15h12.30.538870 +0530
199,0,199,np.float64(0.005555555555555556),np.float64(-0.07592592592592592),1,0,0,1.7021072,target',199,0,199,0,385.7035524,,10,385.6936073,385.7035524,385.7035524,0.0143958,387.3958084,np.float64(0.005555555555555556),np.float64(-0.07592592592592592),1,0,0,1.7021072,target',94327,1,2025-09-30_15h12.26.204,Exp Visual Search,,2025.1.1,59.94208396,2025-09-30 15h12.30.538870 +0530
,,,,,,,,,,,,,,,,,,,,,,,,,,,,,,,,,,,,
,,,,,,,,,,,,,,,,,,,,,,,,,,,,,,,,,,,,
,,,,,,,,Average for 5 distractors,,1.791387349,5,,,,,,,,,,,,,,,,,,,,,,,,,
,,,,,,,,Average for 10 distractors,,2.079777366,10,,,,,,,,,,,,,,,,,,,,,,,,,
,,,,,,,,,,slope,0.05767800353,,,,,,,,,,,,,,,,,,,,,,,,,