thisN,thisTrialN,thisRepN,mouse.x,mouse.y,mouse.leftButton,mouse.midButton,mouse.rightButton,mouse.time,mouse.clicked_name,trials.thisRepN,trials.thisTrialN,trials.thisN,trials.thisIndex,thisRow.t,notes,num_distr,trial.started,Fixation.started,target.started,mouse.started,trial.stopped,trials.mouse.x,trials.mouse.y,trials.mouse.leftButton,trials.mouse.midButton,trials.mouse.rightButton,trials.mouse.time,trials.mouse.clicked_name,participant,session,date,expName,expVersion,psychopyVersion,frameRate,expStart
1,0,1,np.float64(0.1111111111111111),np.float64(0.4148148148148148),1,0,0,1.8667211,target',1,0,1,0,2.1133782,,5,2.1045714,2.1133782,2.1133782,0.0101419,3.9714142,np.float64(0.1111111111111111),np.float64(0.4148148148148148),1,0,0,1.8667211,target',5,1,2025-09-30_16h29.34.670,Exp Visual Search,,2025.1.1,59.97843175,2025-09-30 16h29.42.325164 +0530
2,0,2,np.float64(0.4648148148148148),np.float64(0.42777777777777776),1,0,0,2.3404051,target',2,0,2,0,3.9936608,,5,3.9866511,3.9936608,3.9936608,0.0150009,6.3271499,np.float64(0.4648148148148148),np.float64(0.42777777777777776),1,0,0,2.3404051,target',5,1,2025-09-30_16h29.34.670,Exp Visual Search,,2025.1.1,59.97843175,2025-09-30 16h29.42.325164 +0530
3,0,3,np.float64(0.06111111111111111),np.float64(-0.28888888888888886),1,0,0,2.4386349,target',3,0,3,0,6.345042,,5,6.3374686,6.345042,6.345042,0.0101143,8.7761547,np.float64(0.06111111111111111),np.float64(-0.28888888888888886),1,0,0,2.4386349,target',5,1,2025-09-30_16h29.34.670,Exp Visual Search,,2025.1.1,59.97843175,2025-09-30 16h29.42.325164 +0530
6,0,6,np.float64(0.475),np.float64(-0.20277777777777778),1,0,0,2.1585326,target',6,0,6,0,12.2582842,,5,12.2508058,12.2582842,12.2582842,0.0074809,14.4094043,np.float64(0.475),np.float64(-0.20277777777777778),1,0,0,2.1585326,target',5,1,2025-09-30_16h29.34.670,Exp Visual Search,,2025.1.1,59.97843175,2025-09-30 16h29.42.325164 +0530
7,0,7,np.float64(-0.21944444444444444),np.float64(0.3296296296296296),1,0,0,1.9399479,target',7,0,7,0,14.4269789,,5,14.4193294,14.4269789,14.4269789,0.009802,16.3593299,np.float64(-0.21944444444444444),np.float64(0.3296296296296296),1,0,0,1.9399479,target',5,1,2025-09-30_16h29.34.670,Exp Visual Search,,2025.1.1,59.97843175,2025-09-30 16h29.42.325164 +0530
9,0,9,np.float64(-0.2518518518518518),np.float64(-0.3787037037037037),1,0,0,1.755386,target',9,0,9,0,19.1605494,,5,19.1539013,19.1605494,19.1605494,0.0112164,20.9093595,np.float64(-0.2518518518518518),np.float64(-0.3787037037037037),1,0,0,1.755386,target',5,1,2025-09-30_16h29.34.670,Exp Visual Search,,2025.1.1,59.97843175,2025-09-30 16h29.42.325164 +0530
12,0,12,np.float64(-0.1287037037037037),np.float64(0.37592592592592594),1,0,0,1.6059472,target',12,0,12,0,25.3930884,,5,25.3863773,25.3930884,25.3930884,0.0102425,26.9923789,np.float64(-0.1287037037037037),np.float64(0.37592592592592594),1,0,0,1.6059472,target',5,1,2025-09-30_16h29.34.670,Exp Visual Search,,2025.1.1,59.97843175,2025-09-30 16h29.42.325164 +0530
13,0,13,np.float64(-0.39166666666666666),np.float64(-0.16111111111111112),1,0,0,1.6568865,target',13,0,13,0,27.0088943,,5,27.0014461,27.0088943,27.0088943,0.0089886,28.6583899,np.float64(-0.39166666666666666),np.float64(-0.16111111111111112),1,0,0,1.6568865,target',5,1,2025-09-30_16h29.34.670,Exp Visual Search,,2025.1.1,59.97843175,2025-09-30 16h29.42.325164 +0530
14,0,14,np.float64(-0.12129629629629629),np.float64(0.3574074074074074),1,0,0,1.6895816,target',14,0,14,0,28.6769113,,5,28.669082,28.6769113,28.6769113,0.0105822,30.3587475,np.float64(-0.12129629629629629),np.float64(0.3574074074074074),1,0,0,1.6895816,target',5,1,2025-09-30_16h29.34.670,Exp Visual Search,,2025.1.1,59.97843175,2025-09-30 16h29.42.325164 +0530
19,0,19,np.float64(0.006481481481481481),np.float64(-0.12685185185185185),1,0,0,1.5859496,target',19,0,19,0,37.6630281,,5,37.6549147,37.6630281,37.6630281,0.0128151,39.2409101,np.float64(0.006481481481481481),np.float64(-0.12685185185185185),1,0,0,1.5859496,target',5,1,2025-09-30_16h29.34.670,Exp Visual Search,,2025.1.1,59.97843175,2025-09-30 16h29.42.325164 +0530
20,0,20,np.float64(0.13518518518518519),np.float64(0.21203703703703702),1,0,0,1.6908553,target',20,0,20,0,39.2579721,,5,39.2501399,39.2579721,39.2579721,0.0091533,40.9410368,np.float64(0.13518518518518519),np.float64(0.21203703703703702),1,0,0,1.6908553,target',5,1,2025-09-30_16h29.34.670,Exp Visual Search,,2025.1.1,59.97843175,2025-09-30 16h29.42.325164 +0530
21,0,21,np.float64(-0.17962962962962964),np.float64(-0.43148148148148147),1,0,0,1.6753893,target',21,0,21,0,40.9569366,,5,40.9487982,40.9569366,40.9569366,0.0076834,42.6242539,np.float64(-0.17962962962962964),np.float64(-0.43148148148148147),1,0,0,1.6753893,target',5,1,2025-09-30_16h29.34.670,Exp Visual Search,,2025.1.1,59.97843175,2025-09-30 16h29.42.325164 +0530
22,0,22,np.float64(0.362962962962963),np.float64(0.38333333333333336),1,0,0,1.7740098,target',22,0,22,0,42.6414439,,5,42.6333202,42.6414439,42.6414439,0.008948,44.4073719,np.float64(0.362962962962963),np.float64(0.38333333333333336),1,0,0,1.7740098,target',5,1,2025-09-30_16h29.34.670,Exp Visual Search,,2025.1.1,59.97843175,2025-09-30 16h29.42.325164 +0530
24,0,24,np.float64(0.33796296296296297),np.float64(-0.30925925925925923),1,0,0,2.1567957,target',24,0,24,0,45.9419504,,5,45.9340818,45.9419504,45.9419504,0.0092885,48.090922,np.float64(0.33796296296296297),np.float64(-0.30925925925925923),1,0,0,2.1567957,target',5,1,2025-09-30_16h29.34.670,Exp Visual Search,,2025.1.1,59.97843175,2025-09-30 16h29.42.325164 +0530
26,0,26,np.float64(0.29259259259259257),np.float64(-0.17685185185185184),1,0,0,1.7224095,target',26,0,26,0,50.2264619,,5,50.2185526,50.2264619,50.2264619,0.0110056,51.9410364,np.float64(0.29259259259259257),np.float64(-0.17685185185185184),1,0,0,1.7224095,target',5,1,2025-09-30_16h29.34.670,Exp Visual Search,,2025.1.1,59.97843175,2025-09-30 16h29.42.325164 +0530
27,0,27,np.float64(-0.3416666666666667),np.float64(0.11851851851851852),1,0,0,1.7903286,target',27,0,27,0,51.9580019,,5,51.94992,51.9580019,51.9580019,0.0087579,53.7402968,np.float64(-0.3416666666666667),np.float64(0.11851851851851852),1,0,0,1.7903286,target',5,1,2025-09-30_16h29.34.670,Exp Visual Search,,2025.1.1,59.97843175,2025-09-30 16h29.42.325164 +0530
28,0,28,np.float64(0.08333333333333333),np.float64(-0.08055555555555556),1,0,0,1.6081481,target',28,0,28,0,53.757041,,5,53.7486065,53.757041,53.757041,0.0082256,55.3568094,np.float64(0.08333333333333333),np.float64(-0.08055555555555556),1,0,0,1.6081481,target',5,1,2025-09-30_16h29.34.670,Exp Visual Search,,2025.1.1,59.97843175,2025-09-30 16h29.42.325164 +0530
30,0,30,np.float64(-0.5),np.float64(0.1675925925925926),1,0,0,1.5087325,target',30,0,30,0,56.9563155,,5,56.9484084,56.9563155,56.9563155,0.0080993,58.4572278,np.float64(-0.5),np.float64(0.1675925925925926),1,0,0,1.5087325,target',5,1,2025-09-30_16h29.34.670,Exp Visual Search,,2025.1.1,59.97843175,2025-09-30 16h29.42.325164 +0530
32,0,32,np.float64(0.37592592592592594),np.float64(-0.4212962962962963),1,0,0,1.7733219,target',32,0,32,0,60.3578843,,5,60.3494682,60.3578843,60.3578843,0.009073,62.1228403,np.float64(0.37592592592592594),np.float64(-0.4212962962962963),1,0,0,1.7733219,target',5,1,2025-09-30_16h29.34.670,Exp Visual Search,,2025.1.1,59.97843175,2025-09-30 16h29.42.325164 +0530
33,0,33,np.float64(-0.44814814814814813),np.float64(0.4185185185185185),1,0,0,2.6197935,target',33,0,33,0,62.144161,,5,62.1363023,62.144161,62.144161,0.0133834,64.7561393,np.float64(-0.44814814814814813),np.float64(0.4185185185185185),1,0,0,2.6197935,target',5,1,2025-09-30_16h29.34.670,Exp Visual Search,,2025.1.1,59.97843175,2025-09-30 16h29.42.325164 +0530
35,0,35,np.float64(0.13240740740740742),np.float64(-0.13518518518518519),1,0,0,1.5712893,target',35,0,35,0,66.4587665,,5,66.4520793,66.4587665,66.4587665,0.0118603,68.0234701,np.float64(0.13240740740740742),np.float64(-0.13518518518518519),1,0,0,1.5712893,target',5,1,2025-09-30_16h29.34.670,Exp Visual Search,,2025.1.1,59.97843175,2025-09-30 16h29.42.325164 +0530
36,0,36,np.float64(-0.05925925925925926),np.float64(0.06296296296296296),1,0,0,1.4548497,target',36,0,36,0,68.0415346,,5,68.0344792,68.0415346,68.0415346,0.0108233,69.4893905,np.float64(-0.05925925925925926),np.float64(0.06296296296296296),1,0,0,1.4548497,target',5,1,2025-09-30_16h29.34.670,Exp Visual Search,,2025.1.1,59.97843175,2025-09-30 16h29.42.325164 +0530
39,0,39,np.float64(0.45925925925925926),np.float64(0.4583333333333333),1,0,0,2.3055856,target',39,0,39,0,72.5234236,,5,72.5167294,72.5234236,72.5234236,0.0106943,74.8223669,np.float64(0.45925925925925926),np.float64(0.4583333333333333),1,0,0,2.3055856,target',5,1,2025-09-30_16h29.34.670,Exp Visual Search,,2025.1.1,59.97843175,2025-09-30 16h29.42.325164 +0530
40,0,40,np.float64(-0.4074074074074074),np.float64(0.36203703703703705),1,0,0,1.7078406,target',40,0,40,0,74.8379032,,5,74.8305812,74.8379032,74.8379032,0.0081187,76.5384657,np.float64(-0.4074074074074074),np.float64(0.36203703703703705),1,0,0,1.7078406,target',5,1,2025-09-30_16h29.34.670,Exp Visual Search,,2025.1.1,59.97843175,2025-09-30 16h29.42.325164 +0530
43,0,43,np.float64(-0.4101851851851852),np.float64(-0.38796296296296295),1,0,0,3.5744902,target',43,0,43,0,79.5382075,,5,79.5314271,79.5382075,79.5382075,0.0087704,83.1060147,np.float64(-0.4101851851851852),np.float64(-0.38796296296296295),1,0,0,3.5744902,target',5,1,2025-09-30_16h29.34.670,Exp Visual Search,,2025.1.1,59.97843175,2025-09-30 16h29.42.325164 +0530
44,0,44,np.float64(-0.2222222222222222),np.float64(0.35462962962962963),1,0,0,1.986746,target',44,0,44,0,83.1253852,,5,83.1181615,83.1253852,83.1253852,0.0119539,85.1049597,np.float64(-0.2222222222222222),np.float64(0.35462962962962963),1,0,0,1.986746,target',5,1,2025-09-30_16h29.34.670,Exp Visual Search,,2025.1.1,59.97843175,2025-09-30 16h29.42.325164 +0530
47,0,47,np.float64(0.29259259259259257),np.float64(-0.1787037037037037),1,0,0,1.7206488,target',47,0,47,0,89.3094966,,5,89.3007929,89.3094966,89.3094966,0.0116379,91.0214834,np.float64(0.29259259259259257),np.float64(-0.1787037037037037),1,0,0,1.7206488,target',5,1,2025-09-30_16h29.34.670,Exp Visual Search,,2025.1.1,59.97843175,2025-09-30 16h29.42.325164 +0530
48,0,48,np.float64(0.412962962962963),np.float64(-0.15185185185185185),1,0,0,1.5249746,target',48,0,48,0,91.0381743,,5,91.0299906,91.0381743,91.0381743,0.0084379,92.5550606,np.float64(0.412962962962963),np.float64(-0.15185185185185185),1,0,0,1.5249746,target',5,1,2025-09-30_16h29.34.670,Exp Visual Search,,2025.1.1,59.97843175,2025-09-30 16h29.42.325164 +0530
50,0,50,np.float64(0.3861111111111111),np.float64(-0.3824074074074074),1,0,0,1.6537484,target',50,0,50,0,94.3762438,,5,94.3672402,94.3762438,94.3762438,0.0120571,96.0210312,np.float64(0.3861111111111111),np.float64(-0.3824074074074074),1,0,0,1.6537484,target',5,1,2025-09-30_16h29.34.670,Exp Visual Search,,2025.1.1,59.97843175,2025-09-30 16h29.42.325164 +0530
51,0,51,np.float64(-0.33611111111111114),np.float64(-0.04351851851851852),1,0,0,1.7757865,target',51,0,51,0,96.0368971,,5,96.0288048,96.0368971,96.0368971,0.007714,97.8046725,np.float64(-0.33611111111111114),np.float64(-0.04351851851851852),1,0,0,1.7757865,target',5,1,2025-09-30_16h29.34.670,Exp Visual Search,,2025.1.1,59.97843175,2025-09-30 16h29.42.325164 +0530
52,0,52,np.float64(0.20092592592592592),np.float64(0.09444444444444444),1,0,0,1.5732318,target',52,0,52,0,97.8223805,,5,97.8145507,97.8223805,97.8223805,0.0097089,99.3878535,np.float64(0.20092592592592592),np.float64(0.09444444444444444),1,0,0,1.5732318,target',5,1,2025-09-30_16h29.34.670,Exp Visual Search,,2025.1.1,59.97843175,2025-09-30 16h29.42.325164 +0530
54,0,54,np.float64(-0.06851851851851852),np.float64(0.375),1,0,0,1.2220792,target',54,0,54,0,100.9058915,,5,100.8985306,100.9058915,100.9058915,0.010198,102.1206551,np.float64(-0.06851851851851852),np.float64(0.375),1,0,0,1.2220792,target',5,1,2025-09-30_16h29.34.670,Exp Visual Search,,2025.1.1,59.97843175,2025-09-30 16h29.42.325164 +0530
55,0,55,np.float64(-0.25555555555555554),np.float64(-0.18611111111111112),1,0,0,1.5753318,target',55,0,55,0,102.1368378,,5,102.1286182,102.1368378,102.1368378,0.0078942,103.7039947,np.float64(-0.25555555555555554),np.float64(-0.18611111111111112),1,0,0,1.5753318,target',5,1,2025-09-30_16h29.34.670,Exp Visual Search,,2025.1.1,59.97843175,2025-09-30 16h29.42.325164 +0530
58,0,58,np.float64(0.29259259259259257),np.float64(0.09907407407407408),1,0,0,1.524917,target',58,0,58,0,110.4528554,,5,110.4458096,110.4528554,110.4528554,0.0088153,111.9708329,np.float64(0.29259259259259257),np.float64(0.09907407407407408),1,0,0,1.524917,target',5,1,2025-09-30_16h29.34.670,Exp Visual Search,,2025.1.1,59.97843175,2025-09-30 16h29.42.325164 +0530
61,0,61,np.float64(-0.37777777777777777),np.float64(-0.3592592592592593),1,0,0,1.7591429,target',61,0,61,0,115.8687812,,5,115.8606577,115.8687812,115.8687812,0.0073896,117.6198459,np.float64(-0.37777777777777777),np.float64(-0.3592592592592593),1,0,0,1.7591429,target',5,1,2025-09-30_16h29.34.670,Exp Visual Search,,2025.1.1,59.97843175,2025-09-30 16h29.42.325164 +0530
71,0,71,np.float64(0.14722222222222223),np.float64(0.4324074074074074),1,0,0,1.5911987,target',71,0,71,0,134.9676859,,5,134.9606298,134.9676859,134.9676859,0.0083634,136.5518728,np.float64(0.14722222222222223),np.float64(0.4324074074074074),1,0,0,1.5911987,target',5,1,2025-09-30_16h29.34.670,Exp Visual Search,,2025.1.1,59.97843175,2025-09-30 16h29.42.325164 +0530
72,0,72,np.float64(0.4212962962962963),np.float64(0.09907407407407408),1,0,0,1.5482589,target',72,0,72,0,136.579422,,5,136.5713532,136.579422,136.579422,0.0194172,138.119754,np.float64(0.4212962962962963),np.float64(0.09907407407407408),1,0,0,1.5482589,target',5,1,2025-09-30_16h29.34.670,Exp Visual Search,,2025.1.1,59.97843175,2025-09-30 16h29.42.325164 +0530
74,0,74,np.float64(0.26851851851851855),np.float64(-0.1574074074074074),1,0,0,1.5892861,target',74,0,74,0,139.7692732,,5,139.7624244,139.7692732,139.7692732,0.0101774,141.351762,np.float64(0.26851851851851855),np.float64(-0.1574074074074074),1,0,0,1.5892861,target',5,1,2025-09-30_16h29.34.670,Exp Visual Search,,2025.1.1,59.97843175,2025-09-30 16h29.42.325164 +0530
75,0,75,np.float64(-0.30277777777777776),np.float64(0.337037037037037),1,0,0,1.7078624,target',75,0,75,0,141.367608,,5,141.3606904,141.367608,141.367608,0.0088418,143.0686346,np.float64(-0.30277777777777776),np.float64(0.337037037037037),1,0,0,1.7078624,target',5,1,2025-09-30_16h29.34.670,Exp Visual Search,,2025.1.1,59.97843175,2025-09-30 16h29.42.325164 +0530
76,0,76,np.float64(-0.46296296296296297),np.float64(-0.044444444444444446),1,0,0,1.7212454,target',76,0,76,0,143.0866448,,5,143.0797378,143.0866448,143.0866448,0.01094,144.801027,np.float64(-0.46296296296296297),np.float64(-0.044444444444444446),1,0,0,1.7212454,target',5,1,2025-09-30_16h29.34.670,Exp Visual Search,,2025.1.1,59.97843175,2025-09-30 16h29.42.325164 +0530
78,0,78,np.float64(0.17592592592592593),np.float64(-0.05),1,0,0,1.9036015,target',78,0,78,0,147.2227007,,5,147.2148345,147.2227007,147.2227007,0.0135426,149.1185271,np.float64(0.17592592592592593),np.float64(-0.05),1,0,0,1.9036015,target',5,1,2025-09-30_16h29.34.670,Exp Visual Search,,2025.1.1,59.97843175,2025-09-30 16h29.42.325164 +0530
79,0,79,np.float64(0.2037037037037037),np.float64(-0.4388888888888889),1,0,0,1.8872021,target',79,0,79,0,149.1958781,,5,149.130523,149.1958781,149.1958781,0.0118083,151.0178249,np.float64(0.2037037037037037),np.float64(-0.4388888888888889),1,0,0,1.8872021,target',5,1,2025-09-30_16h29.34.670,Exp Visual Search,,2025.1.1,59.97843175,2025-09-30 16h29.42.325164 +0530
84,0,84,np.float64(-0.362962962962963),np.float64(0.06388888888888888),1,0,0,2.5047665,target',84,0,84,0,159.5857189,,5,159.5788664,159.5857189,159.5857189,0.010262,162.083674,np.float64(-0.362962962962963),np.float64(0.06388888888888888),1,0,0,2.5047665,target',5,1,2025-09-30_16h29.34.670,Exp Visual Search,,2025.1.1,59.97843175,2025-09-30 16h29.42.325164 +0530
87,0,87,np.float64(0.053703703703703705),np.float64(-0.17314814814814813),1,0,0,2.0429109,target',87,0,87,0,165.6327906,,5,165.6246833,165.6327906,165.6327906,0.0077435,167.667693,np.float64(0.053703703703703705),np.float64(-0.17314814814814813),1,0,0,2.0429109,target',5,1,2025-09-30_16h29.34.670,Exp Visual Search,,2025.1.1,59.97843175,2025-09-30 16h29.42.325164 +0530
88,0,88,np.float64(-0.2611111111111111),np.float64(0.23148148148148148),1,0,0,2.9727924,target',88,0,88,0,167.685076,,5,167.6770415,167.685076,167.685076,0.0091506,170.6498865,np.float64(-0.2611111111111111),np.float64(0.23148148148148148),1,0,0,2.9727924,target',5,1,2025-09-30_16h29.34.670,Exp Visual Search,,2025.1.1,59.97843175,2025-09-30 16h29.42.325164 +0530
89,0,89,np.float64(0.21296296296296297),np.float64(-0.1685185185185185),1,0,0,1.5573256,target',89,0,89,0,170.6667749,,5,170.6596869,170.6667749,170.6667749,0.0097129,172.2171175,np.float64(0.21296296296296297),np.float64(-0.1685185185185185),1,0,0,1.5573256,target',5,1,2025-09-30_16h29.34.670,Exp Visual Search,,2025.1.1,59.97843175,2025-09-30 16h29.42.325164 +0530
90,0,90,np.float64(0.38425925925925924),np.float64(0.2518518518518518),1,0,0,1.67011,target',90,0,90,0,172.2370032,,5,172.2295143,172.2370032,172.2370032,0.0121839,173.8996689,np.float64(0.38425925925925924),np.float64(0.2518518518518518),1,0,0,1.67011,target',5,1,2025-09-30_16h29.34.670,Exp Visual Search,,2025.1.1,59.97843175,2025-09-30 16h29.42.325164 +0530
91,0,91,np.float64(-0.08981481481481482),np.float64(-0.06666666666666667),1,0,0,2.2746357,target',91,0,91,0,173.9159586,,5,173.9083768,173.9159586,173.9159586,0.0086279,176.1830711,np.float64(-0.08981481481481482),np.float64(-0.06666666666666667),1,0,0,2.2746357,target',5,1,2025-09-30_16h29.34.670,Exp Visual Search,,2025.1.1,59.97843175,2025-09-30 16h29.42.325164 +0530
94,0,94,np.float64(0.0787037037037037),np.float64(-0.05740740740740741),1,0,0,1.3032565,target',94,0,94,0,179.2703937,,5,179.2624216,179.2703937,179.2703937,0.0116714,180.565736,np.float64(0.0787037037037037),np.float64(-0.05740740740740741),1,0,0,1.3032565,target',5,1,2025-09-30_16h29.34.670,Exp Visual Search,,2025.1.1,59.97843175,2025-09-30 16h29.42.325164 +0530
96,0,96,np.float64(-0.10648148148148148),np.float64(-0.06944444444444445),1,0,0,1.4719963,target',96,0,96,0,183.6688594,,5,183.6608594,183.6688594,183.6688594,0.0104803,185.132942,np.float64(-0.10648148148148148),np.float64(-0.06944444444444445),1,0,0,1.4719963,target',5,1,2025-09-30_16h29.34.670,Exp Visual Search,,2025.1.1,59.97843175,2025-09-30 16h29.42.325164 +0530
97,0,97,np.float64(-0.23333333333333334),np.float64(0.337037037037037),1,0,0,1.8716528,target',97,0,97,0,185.1523205,,5,185.1449013,185.1523205,185.1523205,0.0117863,187.0166582,np.float64(-0.23333333333333334),np.float64(0.337037037037037),1,0,0,1.8716528,target',5,1,2025-09-30_16h29.34.670,Exp Visual Search,,2025.1.1,59.97843175,2025-09-30 16h29.42.325164 +0530
98,0,98,np.float64(0.375),np.float64(-0.0824074074074074),1,0,0,1.6023008,target',98,0,98,0,187.037979,,5,187.0296959,187.037979,187.037979,0.0128363,188.632045,np.float64(0.375),np.float64(-0.0824074074074074),1,0,0,1.6023008,target',5,1,2025-09-30_16h29.34.670,Exp Visual Search,,2025.1.1,59.97843175,2025-09-30 16h29.42.325164 +0530
103,0,103,np.float64(0.18888888888888888),np.float64(-0.46296296296296297),1,0,0,2.3245969,target',103,0,103,0,199.0150113,,5,199.0066887,199.0150113,199.0150113,0.0082433,201.3313326,np.float64(0.18888888888888888),np.float64(-0.46296296296296297),1,0,0,2.3245969,target',5,1,2025-09-30_16h29.34.670,Exp Visual Search,,2025.1.1,59.97843175,2025-09-30 16h29.42.325164 +0530
104,0,104,np.float64(0.2851851851851852),np.float64(-0.2833333333333333),1,0,0,1.6419877,target',104,0,104,0,201.3471828,,5,201.3393557,201.3471828,201.3471828,0.0079589,202.9814236,np.float64(0.2851851851851852),np.float64(-0.2833333333333333),1,0,0,1.6419877,target',5,1,2025-09-30_16h29.34.670,Exp Visual Search,,2025.1.1,59.97843175,2025-09-30 16h29.42.325164 +0530
109,0,109,np.float64(0.2851851851851852),np.float64(-0.3175925925925926),1,0,0,1.8570738,target',109,0,109,0,211.3319271,,5,211.3239441,211.3319271,211.3319271,0.0096147,213.1810521,np.float64(0.2851851851851852),np.float64(-0.3175925925925926),1,0,0,1.8570738,target',5,1,2025-09-30_16h29.34.670,Exp Visual Search,,2025.1.1,59.97843175,2025-09-30 16h29.42.325164 +0530
110,0,110,np.float64(0.3277777777777778),np.float64(-0.3101851851851852),1,0,0,1.1407976,target',110,0,110,0,213.1980704,,5,213.1893575,213.1980704,213.1980704,0.0082495,214.3301931,np.float64(0.3277777777777778),np.float64(-0.3101851851851852),1,0,0,1.1407976,target',5,1,2025-09-30_16h29.34.670,Exp Visual Search,,2025.1.1,59.97843175,2025-09-30 16h29.42.325164 +0530
111,0,111,np.float64(0.25925925925925924),np.float64(0.2972222222222222),1,0,0,2.6579333,target',111,0,111,0,214.3474984,,5,214.3391907,214.3474984,214.3474984,0.0089226,216.9971712,np.float64(0.25925925925925924),np.float64(0.2972222222222222),1,0,0,2.6579333,target',5,1,2025-09-30_16h29.34.670,Exp Visual Search,,2025.1.1,59.97843175,2025-09-30 16h29.42.325164 +0530
113,0,113,np.float64(-0.4935185185185185),np.float64(0.47129629629629627),1,0,0,2.7751956,target',113,0,113,0,219.1626181,,5,219.1549818,219.1626181,219.1626181,0.0079837,221.9302975,np.float64(-0.4935185185185185),np.float64(0.47129629629629627),1,0,0,2.7751956,target',5,1,2025-09-30_16h29.34.670,Exp Visual Search,,2025.1.1,59.97843175,2025-09-30 16h29.42.325164 +0530
114,0,114,np.float64(0.125),np.float64(0.007407407407407408),1,0,0,1.7908437,target',114,0,114,0,221.9470247,,5,221.9394002,221.9470247,221.9470247,0.0089028,223.7303203,np.float64(0.125),np.float64(0.007407407407407408),1,0,0,1.7908437,target',5,1,2025-09-30_16h29.34.670,Exp Visual Search,,2025.1.1,59.97843175,2025-09-30 16h29.42.325164 +0530
116,0,116,np.float64(0.44907407407407407),np.float64(0.016666666666666666),1,0,0,1.7229726,target',116,0,116,0,225.9819974,,5,225.9738291,225.9819974,225.9819974,0.0100675,227.6968664,np.float64(0.44907407407407407),np.float64(0.016666666666666666),1,0,0,1.7229726,target',5,1,2025-09-30_16h29.34.670,Exp Visual Search,,2025.1.1,59.97843175,2025-09-30 16h29.42.325164 +0530
117,0,117,np.float64(0.35462962962962963),np.float64(-0.27037037037037037),1,0,0,1.4032427,target',117,0,117,0,227.7170495,,5,227.7093604,227.7170495,227.7170495,0.0123748,229.1126522,np.float64(0.35462962962962963),np.float64(-0.27037037037037037),1,0,0,1.4032427,target',5,1,2025-09-30_16h29.34.670,Exp Visual Search,,2025.1.1,59.97843175,2025-09-30 16h29.42.325164 +0530
118,0,118,np.float64(0.25925925925925924),np.float64(0.1537037037037037),1,0,0,1.3747004,target',118,0,118,0,229.1283612,,5,229.120833,229.1283612,229.1283612,0.0081011,230.4955824,np.float64(0.25925925925925924),np.float64(0.1537037037037037),1,0,0,1.3747004,target',5,1,2025-09-30_16h29.34.670,Exp Visual Search,,2025.1.1,59.97843175,2025-09-30 16h29.42.325164 +0530
119,0,119,np.float64(0.4462962962962963),np.float64(-0.21481481481481482),1,0,0,1.6752513,target',119,0,119,0,230.5116356,,5,230.5037764,230.5116356,230.5116356,0.0081181,232.1790728,np.float64(0.4462962962962963),np.float64(-0.21481481481481482),1,0,0,1.6752513,target',5,1,2025-09-30_16h29.34.670,Exp Visual Search,,2025.1.1,59.97843175,2025-09-30 16h29.42.325164 +0530
120,0,120,np.float64(0.1527777777777778),np.float64(0.011111111111111112),1,0,0,1.3761612,target',120,0,120,0,232.1951772,,5,232.1870851,232.1951772,232.1951772,0.0079317,233.5633435,np.float64(0.1527777777777778),np.float64(0.011111111111111112),1,0,0,1.3761612,target',5,1,2025-09-30_16h29.34.670,Exp Visual Search,,2025.1.1,59.97843175,2025-09-30 16h29.42.325164 +0530
122,0,122,np.float64(0.11944444444444445),np.float64(0.35833333333333334),1,0,0,1.5092573,target',122,0,122,0,234.9949328,,5,234.9869619,234.9949328,234.9949328,0.0075619,236.4962668,np.float64(0.11944444444444445),np.float64(0.35833333333333334),1,0,0,1.5092573,target',5,1,2025-09-30_16h29.34.670,Exp Visual Search,,2025.1.1,59.97843175,2025-09-30 16h29.42.325164 +0530
123,0,123,np.float64(0.34444444444444444),np.float64(-0.016666666666666666),1,0,0,1.5573913,target',123,0,123,0,236.5122245,,5,236.5048401,236.5122245,236.5122245,0.0084895,238.0622758,np.float64(0.34444444444444444),np.float64(-0.016666666666666666),1,0,0,1.5573913,target',5,1,2025-09-30_16h29.34.670,Exp Visual Search,,2025.1.1,59.97843175,2025-09-30 16h29.42.325164 +0530
124,0,124,np.float64(-0.3648148148148148),np.float64(-0.37037037037037035),1,0,0,1.6761134,target',124,0,124,0,238.0780139,,5,238.0700147,238.0780139,238.0780139,0.0076663,239.7462196,np.float64(-0.3648148148148148),np.float64(-0.37037037037037035),1,0,0,1.6761134,target',5,1,2025-09-30_16h29.34.670,Exp Visual Search,,2025.1.1,59.97843175,2025-09-30 16h29.42.325164 +0530
127,0,127,np.float64(0.21851851851851853),np.float64(0.21203703703703702),1,0,0,1.2066944,target',127,0,127,0,243.5306517,,5,243.5219424,243.5306517,243.5306517,0.0094052,244.7286815,np.float64(0.21851851851851853),np.float64(0.21203703703703702),1,0,0,1.2066944,target',5,1,2025-09-30_16h29.34.670,Exp Visual Search,,2025.1.1,59.97843175,2025-09-30 16h29.42.325164 +0530
134,0,134,np.float64(-0.22037037037037038),np.float64(-0.08981481481481482),1,0,0,1.8069354,target',134,0,134,0,256.2623871,,5,256.2541937,256.2623871,256.2623871,0.0093905,258.0611783,np.float64(-0.22037037037037038),np.float64(-0.08981481481481482),1,0,0,1.8069354,target',5,1,2025-09-30_16h29.34.670,Exp Visual Search,,2025.1.1,59.97843175,2025-09-30 16h29.42.325164 +0530
139,0,139,np.float64(-0.08888888888888889),np.float64(-0.11296296296296296),1,0,0,1.9040152,target',139,0,139,0,264.148959,,5,264.1400429,264.148959,264.148959,0.0123612,266.0441048,np.float64(-0.08888888888888889),np.float64(-0.11296296296296296),1,0,0,1.9040152,target',5,1,2025-09-30_16h29.34.670,Exp Visual Search,,2025.1.1,59.97843175,2025-09-30 16h29.42.325164 +0530
141,0,141,np.float64(-0.4759259259259259),np.float64(-0.15462962962962962),1,0,0,1.9571272,target',141,0,141,0,268.1614549,,5,268.1534074,268.1614549,268.1614549,0.0090682,270.1105903,np.float64(-0.4759259259259259),np.float64(-0.15462962962962962),1,0,0,1.9571272,target',5,1,2025-09-30_16h29.34.670,Exp Visual Search,,2025.1.1,59.97843175,2025-09-30 16h29.42.325164 +0530
142,0,142,np.float64(0.40185185185185185),np.float64(0.39166666666666666),1,0,0,2.1246115,target',142,0,142,0,270.1262456,,5,270.1188731,270.1262456,270.1262456,0.0081798,272.2435307,np.float64(0.40185185185185185),np.float64(0.39166666666666666),1,0,0,2.1246115,target',5,1,2025-09-30_16h29.34.670,Exp Visual Search,,2025.1.1,59.97843175,2025-09-30 16h29.42.325164 +0530
144,0,144,np.float64(0.08611111111111111),np.float64(-0.37962962962962965),1,0,0,1.973265,target',144,0,144,0,274.9948955,,5,274.9869095,274.9948955,274.9948955,0.0095212,276.9602357,np.float64(0.08611111111111111),np.float64(-0.37962962962962965),1,0,0,1.973265,target',5,1,2025-09-30_16h29.34.670,Exp Visual Search,,2025.1.1,59.97843175,2025-09-30 16h29.42.325164 +0530
146,0,146,np.float64(0.475),np.float64(-0.4083333333333333),1,0,0,2.0732058,target',146,0,146,0,280.2605074,,5,280.2531493,280.2605074,280.2605074,0.0091768,282.3263988,np.float64(0.475),np.float64(-0.4083333333333333),1,0,0,2.0732058,target',5,1,2025-09-30_16h29.34.670,Exp Visual Search,,2025.1.1,59.97843175,2025-09-30 16h29.42.325164 +0530
148,0,148,np.float64(0.22314814814814815),np.float64(-0.18518518518518517),1,0,0,1.705089,target',148,0,148,0,283.9292676,,5,283.9212248,283.9292676,283.9292676,0.0103059,285.6263798,np.float64(0.22314814814814815),np.float64(-0.18518518518518517),1,0,0,1.705089,target',5,1,2025-09-30_16h29.34.670,Exp Visual Search,,2025.1.1,59.97843175,2025-09-30 16h29.42.325164 +0530
149,0,149,np.float64(0.3074074074074074),np.float64(0.4212962962962963),1,0,0,2.8060819,target',149,0,149,0,285.6444832,,5,285.6362062,285.6444832,285.6444832,0.0096991,288.4423357,np.float64(0.3074074074074074),np.float64(0.4212962962962963),1,0,0,2.8060819,target',5,1,2025-09-30_16h29.34.670,Exp Visual Search,,2025.1.1,59.97843175,2025-09-30 16h29.42.325164 +0530
151,0,151,np.float64(-0.21388888888888888),np.float64(0.32314814814814813),1,0,0,1.7903361,target',151,0,151,0,290.6268216,,5,290.6185933,290.6268216,290.6268216,0.0084727,292.4089766,np.float64(-0.21388888888888888),np.float64(0.32314814814814813),1,0,0,1.7903361,target',5,1,2025-09-30_16h29.34.670,Exp Visual Search,,2025.1.1,59.97843175,2025-09-30 16h29.42.325164 +0530
152,0,152,np.float64(0.3925925925925926),np.float64(0.2064814814814815),1,0,0,1.5557454,target',152,0,152,0,292.4288805,,5,292.4204072,292.4288805,292.4288805,0.0113579,293.9761972,np.float64(0.3925925925925926),np.float64(0.2064814814814815),1,0,0,1.5557454,target',5,1,2025-09-30_16h29.34.670,Exp Visual Search,,2025.1.1,59.97843175,2025-09-30 16h29.42.325164 +0530
154,0,154,np.float64(-0.18333333333333332),np.float64(-0.4305555555555556),1,0,0,2.9385204,target',154,0,154,0,296.1444369,,5,296.1368834,296.1444369,296.1444369,0.010766,299.0754579,np.float64(-0.18333333333333332),np.float64(-0.4305555555555556),1,0,0,2.9385204,target',5,1,2025-09-30_16h29.34.670,Exp Visual Search,,2025.1.1,59.97843175,2025-09-30 16h29.42.325164 +0530
155,0,155,np.float64(0.23148148148148148),np.float64(0.18611111111111112),1,0,0,1.8075983,target',155,0,155,0,299.0929704,,5,299.0845098,299.0929704,299.0929704,0.008978,300.8921644,np.float64(0.23148148148148148),np.float64(0.18611111111111112),1,0,0,1.8075983,target',5,1,2025-09-30_16h29.34.670,Exp Visual Search,,2025.1.1,59.97843175,2025-09-30 16h29.42.325164 +0530
157,0,157,np.float64(-0.09537037037037037),np.float64(-0.05185185185185185),1,0,0,1.6028639,target',157,0,157,0,302.4165978,,5,302.4065131,302.4165978,302.4165978,0.014596,304.0094078,np.float64(-0.09537037037037037),np.float64(-0.05185185185185185),1,0,0,1.6028639,target',5,1,2025-09-30_16h29.34.670,Exp Visual Search,,2025.1.1,59.97843175,2025-09-30 16h29.42.325164 +0530
158,0,158,np.float64(0.30462962962962964),np.float64(-0.35185185185185186),1,0,0,1.5731034,target',158,0,158,0,304.0266294,,5,304.0185396,304.0266294,304.0266294,0.0090411,305.5917005,np.float64(0.30462962962962964),np.float64(-0.35185185185185186),1,0,0,1.5731034,target',5,1,2025-09-30_16h29.34.670,Exp Visual Search,,2025.1.1,59.97843175,2025-09-30 16h29.42.325164 +0530
161,0,161,np.float64(0.1111111111111111),np.float64(-0.06666666666666667),1,0,0,1.4884476,target',161,0,161,0,309.9117492,,5,309.9034968,309.9117492,309.9117492,0.0115853,311.3919745,np.float64(0.1111111111111111),np.float64(-0.06666666666666667),1,0,0,1.4884476,target',5,1,2025-09-30_16h29.34.670,Exp Visual Search,,2025.1.1,59.97843175,2025-09-30 16h29.42.325164 +0530
162,0,162,np.float64(0.18981481481481483),np.float64(0.046296296296296294),1,0,0,1.3552842,target',162,0,162,0,311.4106863,,5,311.4024705,311.4106863,311.4106863,0.0104246,312.7577987,np.float64(0.18981481481481483),np.float64(0.046296296296296294),1,0,0,1.3552842,target',5,1,2025-09-30_16h29.34.670,Exp Visual Search,,2025.1.1,59.97843175,2025-09-30 16h29.42.325164 +0530
163,0,163,np.float64(0.14722222222222223),np.float64(0.4601851851851852),1,0,0,2.14209,target',163,0,163,0,312.7741202,,5,312.76602,312.7741202,312.7741202,0.008157,314.9081909,np.float64(0.14722222222222223),np.float64(0.4601851851851852),1,0,0,2.14209,target',5,1,2025-09-30_16h29.34.670,Exp Visual Search,,2025.1.1,59.97843175,2025-09-30 16h29.42.325164 +0530
164,0,164,np.float64(-0.25833333333333336),np.float64(-0.30092592592592593),1,0,0,1.9551969,target',164,0,164,0,314.9271879,,5,314.9189737,314.9271879,314.9271879,0.0106402,316.8742587,np.float64(-0.25833333333333336),np.float64(-0.30092592592592593),1,0,0,1.9551969,target',5,1,2025-09-30_16h29.34.670,Exp Visual Search,,2025.1.1,59.97843175,2025-09-30 16h29.42.325164 +0530
165,0,165,np.float64(0.3435185185185185),np.float64(-0.32407407407407407),1,0,0,2.086851,target',165,0,165,0,316.8952642,,5,316.8870064,316.8952642,316.8952642,0.0125779,318.9739039,np.float64(0.3435185185185185),np.float64(-0.32407407407407407),1,0,0,2.086851,target',5,1,2025-09-30_16h29.34.670,Exp Visual Search,,2025.1.1,59.97843175,2025-09-30 16h29.42.325164 +0530
166,0,166,np.float64(0.004629629629629629),np.float64(-0.17037037037037037),1,0,0,1.3925037,target',166,0,166,0,318.9897729,,5,318.9814888,318.9897729,318.9897729,0.007511,320.3740466,np.float64(0.004629629629629629),np.float64(-0.17037037037037037),1,0,0,1.3925037,target',5,1,2025-09-30_16h29.34.670,Exp Visual Search,,2025.1.1,59.97843175,2025-09-30 16h29.42.325164 +0530
167,0,167,np.float64(-0.06759259259259259),np.float64(0.35185185185185186),1,0,0,1.9741899,target',167,0,167,0,320.3916276,,5,320.3838362,320.3916276,320.3916276,0.0096985,322.3581304,np.float64(-0.06759259259259259),np.float64(0.35185185185185186),1,0,0,1.9741899,target',5,1,2025-09-30_16h29.34.670,Exp Visual Search,,2025.1.1,59.97843175,2025-09-30 16h29.42.325164 +0530
168,0,168,np.float64(-0.4074074074074074),np.float64(0.125),1,0,0,1.9386735,target',168,0,168,0,322.3765824,,5,322.3687123,322.3765824,322.3765824,0.0103721,324.3074604,np.float64(-0.4074074074074074),np.float64(0.125),1,0,0,1.9386735,target',5,1,2025-09-30_16h29.34.670,Exp Visual Search,,2025.1.1,59.97843175,2025-09-30 16h29.42.325164 +0530
172,0,172,np.float64(0.21944444444444444),np.float64(-0.15925925925925927),1,0,0,1.7875544,target',172,0,172,0,331.6448164,,5,331.636676,331.6448164,331.6448164,0.0116428,333.4243403,np.float64(0.21944444444444444),np.float64(-0.15925925925925927),1,0,0,1.7875544,target',5,1,2025-09-30_16h29.34.670,Exp Visual Search,,2025.1.1,59.97843175,2025-09-30 16h29.42.325164 +0530
174,0,174,np.float64(-0.14351851851851852),np.float64(-0.43333333333333335),1,0,0,2.3102379,target',174,0,174,0,336.3048545,,5,336.2973729,336.3048545,336.3048545,0.01237,338.6077212,np.float64(-0.14351851851851852),np.float64(-0.43333333333333335),1,0,0,2.3102379,target',5,1,2025-09-30_16h29.34.670,Exp Visual Search,,2025.1.1,59.97843175,2025-09-30 16h29.42.325164 +0530
175,0,175,np.float64(-0.14722222222222223),np.float64(-0.08333333333333333),1,0,0,1.7048813,target',175,0,175,0,338.6271266,,5,338.6190101,338.6271266,338.6271266,0.0110706,340.3240031,np.float64(-0.14722222222222223),np.float64(-0.08333333333333333),1,0,0,1.7048813,target',5,1,2025-09-30_16h29.34.670,Exp Visual Search,,2025.1.1,59.97843175,2025-09-30 16h29.42.325164 +0530
179,0,179,np.float64(0.35555555555555557),np.float64(-0.4185185185185185),1,0,0,2.4262619,target',179,0,179,0,347.4062933,,5,347.3966346,347.4062933,347.4062933,0.0121809,349.823008,np.float64(0.35555555555555557),np.float64(-0.4185185185185185),1,0,0,2.4262619,target',5,1,2025-09-30_16h29.34.670,Exp Visual Search,,2025.1.1,59.97843175,2025-09-30 16h29.42.325164 +0530
180,0,180,np.float64(0.09814814814814815),np.float64(0.004629629629629629),1,0,0,1.8067484,target',180,0,180,0,349.8409089,,5,349.8330158,349.8409089,349.8409089,0.0097834,351.6398791,np.float64(0.09814814814814815),np.float64(0.004629629629629629),1,0,0,1.8067484,target',5,1,2025-09-30_16h29.34.670,Exp Visual Search,,2025.1.1,59.97843175,2025-09-30 16h29.42.325164 +0530
181,0,181,np.float64(0.47685185185185186),np.float64(-0.4444444444444444),1,0,0,1.945251,target',181,0,181,0,351.6705038,,5,351.6615613,351.6705038,351.6705038,0.0214683,353.6069218,np.float64(0.47685185185185186),np.float64(-0.4444444444444444),1,0,0,1.945251,target',5,1,2025-09-30_16h29.34.670,Exp Visual Search,,2025.1.1,59.97843175,2025-09-30 16h29.42.325164 +0530
182,0,182,np.float64(0.06944444444444445),np.float64(-0.18888888888888888),1,0,0,1.8842374,target',182,0,182,0,353.629144,,5,353.6209531,353.629144,353.629144,0.0138133,355.5052356,np.float64(0.06944444444444445),np.float64(-0.18888888888888888),1,0,0,1.8842374,target',5,1,2025-09-30_16h29.34.670,Exp Visual Search,,2025.1.1,59.97843175,2025-09-30 16h29.42.325164 +0530
184,0,184,np.float64(0.15),np.float64(0.4305555555555556),1,0,0,1.7865973,target',184,0,184,0,357.7273914,,5,357.719701,357.7273914,357.7273914,0.0296512,359.5064058,np.float64(0.15),np.float64(0.4305555555555556),1,0,0,1.7865973,target',5,1,2025-09-30_16h29.34.670,Exp Visual Search,,2025.1.1,59.97843175,2025-09-30 16h29.42.325164 +0530
185,0,185,np.float64(-0.07222222222222222),np.float64(-0.4462962962962963),1,0,0,2.8548227,target',185,0,185,0,359.5421005,,5,359.5341743,359.5421005,359.5421005,0.0275476,362.3891038,np.float64(-0.07222222222222222),np.float64(-0.4462962962962963),1,0,0,2.8548227,target',5,1,2025-09-30_16h29.34.670,Exp Visual Search,,2025.1.1,59.97843175,2025-09-30 16h29.42.325164 +0530
190,0,190,np.float64(0.36203703703703705),np.float64(-0.40555555555555556),1,0,0,2.1870203,target',190,0,190,0,372.9436644,,5,372.9334194,372.9436644,372.9436644,0.0168119,375.1204834,np.float64(0.36203703703703705),np.float64(-0.40555555555555556),1,0,0,2.1870203,target',5,1,2025-09-30_16h29.34.670,Exp Visual Search,,2025.1.1,59.97843175,2025-09-30 16h29.42.325164 +0530
191,0,191,np.float64(-0.05),np.float64(0.4527777777777778),1,0,0,3.491833,target',191,0,191,0,375.1373333,,5,375.1298735,375.1373333,375.1373333,0.0093185,378.6218245,np.float64(-0.05),np.float64(0.4527777777777778),1,0,0,3.491833,target',5,1,2025-09-30_16h29.34.670,Exp Visual Search,,2025.1.1,59.97843175,2025-09-30 16h29.42.325164 +0530
192,0,192,np.float64(0.4824074074074074),np.float64(-0.28055555555555556),1,0,0,2.1881005,target',192,0,192,0,378.6424257,,5,378.6341845,378.6424257,378.6424257,0.0121152,380.8224553,np.float64(0.4824074074074074),np.float64(-0.28055555555555556),1,0,0,2.1881005,target',5,1,2025-09-30_16h29.34.670,Exp Visual Search,,2025.1.1,59.97843175,2025-09-30 16h29.42.325164 +0530
193,0,193,np.float64(-0.49074074074074076),np.float64(-0.017592592592592594),1,0,0,3.1705218,target',193,0,193,0,380.8431024,,5,380.8341832,380.8431024,380.8431024,0.0113899,384.0048165,np.float64(-0.49074074074074076),np.float64(-0.017592592592592594),1,0,0,3.1705218,target',5,1,2025-09-30_16h29.34.670,Exp Visual Search,,2025.1.1,59.97843175,2025-09-30 16h29.42.325164 +0530
195,0,195,np.float64(-0.31203703703703706),np.float64(-0.2212962962962963),1,0,0,1.6386281,target',195,0,195,0,386.2071306,,5,386.1993947,386.2071306,386.2071306,0.0117212,387.838132,np.float64(-0.31203703703703706),np.float64(-0.2212962962962963),1,0,0,1.6386281,target',5,1,2025-09-30_16h29.34.670,Exp Visual Search,,2025.1.1,59.97843175,2025-09-30 16h29.42.325164 +0530
198,0,198,np.float64(-0.06111111111111111),np.float64(0.4046296296296296),1,0,0,2.1731533,target',198,0,198,0,394.9256435,,5,394.9145354,394.9256435,394.9256435,0.0100355,397.0878128,np.float64(-0.06111111111111111),np.float64(0.4046296296296296),1,0,0,2.1731533,target',5,1,2025-09-30_16h29.34.670,Exp Visual Search,,2025.1.1,59.97843175,2025-09-30 16h29.42.325164 +0530
199,0,199,np.float64(-0.25462962962962965),np.float64(-0.3962962962962963),1,0,0,2.3373971,target',199,0,199,0,397.1100881,,5,397.0998246,397.1100881,397.1100881,0.011788,399.4373261,np.float64(-0.25462962962962965),np.float64(-0.3962962962962963),1,0,0,2.3373971,target',5,1,2025-09-30_16h29.34.670,Exp Visual Search,,2025.1.1,59.97843175,2025-09-30 16h29.42.325164 +0530
0,0,0,np.float64(0.22870370370370371),np.float64(0.028703703703703703),1,0,0,2.0665911,target',0,0,0,0,0.0398365,,10,0.0276633,0.0398365,0.0398365,0.0276834,2.0943099,np.float64(0.22870370370370371),np.float64(0.028703703703703703),1,0,0,2.0665911,target',5,1,2025-09-30_16h29.34.670,Exp Visual Search,,2025.1.1,59.97843175,2025-09-30 16h29.42.325164 +0530
4,0,4,np.float64(-0.41759259259259257),np.float64(0.18796296296296297),1,0,0,1.7151419,target',4,0,4,0,8.806973,,10,8.7949378,8.806973,8.806973,0.0187043,10.5101761,np.float64(-0.41759259259259257),np.float64(0.18796296296296297),1,0,0,1.7151419,target',5,1,2025-09-30_16h29.34.670,Exp Visual Search,,2025.1.1,59.97843175,2025-09-30 16h29.42.325164 +0530
5,0,5,np.float64(0.11944444444444445),np.float64(0.27685185185185185),1,0,0,1.7126422,target',5,0,5,0,10.5393755,,10,10.5304559,10.5393755,10.5393755,0.0200335,12.2431665,np.float64(0.11944444444444445),np.float64(0.27685185185185185),1,0,0,1.7126422,target',5,1,2025-09-30_16h29.34.670,Exp Visual Search,,2025.1.1,59.97843175,2025-09-30 16h29.42.325164 +0530
8,0,8,np.float64(0.4537037037037037),np.float64(-0.34444444444444444),1,0,0,2.7660015,target',8,0,8,0,16.3849183,,10,16.3763571,16.3849183,16.3849183,0.0169273,19.1424539,np.float64(0.4537037037037037),np.float64(-0.34444444444444444),1,0,0,2.7660015,target',5,1,2025-09-30_16h29.34.670,Exp Visual Search,,2025.1.1,59.97843175,2025-09-30 16h29.42.325164 +0530
10,0,10,np.float64(0.07314814814814814),np.float64(0.2916666666666667),1,0,0,1.8483645,target',10,0,10,0,20.9359375,,10,20.9270738,20.9359375,20.9359375,0.0175626,22.77548,np.float64(0.07314814814814814),np.float64(0.2916666666666667),1,0,0,1.8483645,target',5,1,2025-09-30_16h29.34.670,Exp Visual Search,,2025.1.1,59.97843175,2025-09-30 16h29.42.325164 +0530
11,0,11,np.float64(-0.24444444444444444),np.float64(-0.4564814814814815),1,0,0,2.5841442,target',11,0,11,0,22.8010017,,10,22.7916875,22.8010017,22.8010017,0.01612,25.3759202,np.float64(-0.24444444444444444),np.float64(-0.4564814814814815),1,0,0,2.5841442,target',5,1,2025-09-30_16h29.34.670,Exp Visual Search,,2025.1.1,59.97843175,2025-09-30 16h29.42.325164 +0530
15,0,15,np.float64(-0.2657407407407407),np.float64(0.375),1,0,0,1.2808908,target',15,0,15,0,30.3879997,,10,30.3770259,30.3879997,30.3879997,0.018121,31.6579767,np.float64(-0.2657407407407407),np.float64(0.375),1,0,0,1.2808908,target',5,1,2025-09-30_16h29.34.670,Exp Visual Search,,2025.1.1,59.97843175,2025-09-30 16h29.42.325164 +0530
16,0,16,np.float64(-0.2962962962962963),np.float64(-0.2972222222222222),1,0,0,1.6687966,target',16,0,16,0,31.6838478,,10,31.6732626,31.6838478,31.6838478,0.0151848,33.3421469,np.float64(-0.2962962962962963),np.float64(-0.2972222222222222),1,0,0,1.6687966,target',5,1,2025-09-30_16h29.34.670,Exp Visual Search,,2025.1.1,59.97843175,2025-09-30 16h29.42.325164 +0530
17,0,17,np.float64(0.2953703703703704),np.float64(-0.35185185185185186),1,0,0,1.9484126,target',17,0,17,0,33.3713423,,10,33.3595746,33.3713423,33.3713423,0.0170806,35.308038,np.float64(0.2953703703703704),np.float64(-0.35185185185185186),1,0,0,1.9484126,target',5,1,2025-09-30_16h29.34.670,Exp Visual Search,,2025.1.1,59.97843175,2025-09-30 16h29.42.325164 +0530
18,0,18,np.float64(-0.3287037037037037),np.float64(-0.2212962962962963),1,0,0,2.3171302,target',18,0,18,0,35.335779,,10,35.3246677,35.335779,35.335779,0.0165186,37.6418904,np.float64(-0.3287037037037037),np.float64(-0.2212962962962963),1,0,0,2.3171302,target',5,1,2025-09-30_16h29.34.670,Exp Visual Search,,2025.1.1,59.97843175,2025-09-30 16h29.42.325164 +0530
23,0,23,np.float64(0.14722222222222223),np.float64(0.3962962962962963),1,0,0,1.4906062,target',23,0,23,0,44.4447623,,10,44.4339865,44.4447623,44.4447623,0.0265423,45.9246524,np.float64(0.14722222222222223),np.float64(0.3962962962962963),1,0,0,1.4906062,target',5,1,2025-09-30_16h29.34.670,Exp Visual Search,,2025.1.1,59.97843175,2025-09-30 16h29.42.325164 +0530
25,0,25,np.float64(0.4166666666666667),np.float64(-0.09907407407407408),1,0,0,2.1012448,target',25,0,25,0,48.1164223,,10,48.1059559,48.1164223,48.1164223,0.0149805,50.2073099,np.float64(0.4166666666666667),np.float64(-0.09907407407407408),1,0,0,2.1012448,target',5,1,2025-09-30_16h29.34.670,Exp Visual Search,,2025.1.1,59.97843175,2025-09-30 16h29.42.325164 +0530
29,0,29,np.float64(-0.09351851851851851),np.float64(0.11018518518518519),1,0,0,1.5679042,target',29,0,29,0,55.3826521,,10,55.3722552,55.3826521,55.3826521,0.0153421,56.9402074,np.float64(-0.09351851851851851),np.float64(0.11018518518518519),1,0,0,1.5679042,target',5,1,2025-09-30_16h29.34.670,Exp Visual Search,,2025.1.1,59.97843175,2025-09-30 16h29.42.325164 +0530
31,0,31,np.float64(-0.04814814814814815),np.float64(-0.4064814814814815),1,0,0,1.8666117,target',31,0,31,0,58.4850845,,10,58.4736134,58.4850845,58.4850845,0.0162032,60.3402769,np.float64(-0.04814814814814815),np.float64(-0.4064814814814815),1,0,0,1.8666117,target',5,1,2025-09-30_16h29.34.670,Exp Visual Search,,2025.1.1,59.97843175,2025-09-30 16h29.42.325164 +0530
34,0,34,np.float64(0.040740740740740744),np.float64(0.25092592592592594),1,0,0,1.6672418,target',34,0,34,0,64.7823469,,10,64.7726706,64.7823469,64.7823469,0.0164512,66.4400005,np.float64(0.040740740740740744),np.float64(0.25092592592592594),1,0,0,1.6672418,target',5,1,2025-09-30_16h29.34.670,Exp Visual Search,,2025.1.1,59.97843175,2025-09-30 16h29.42.325164 +0530
37,0,37,np.float64(-0.19444444444444445),np.float64(0.040740740740740744),1,0,0,1.3712658,target',37,0,37,0,69.5278041,,10,69.5183388,69.5278041,69.5278041,0.0288464,70.8896653,np.float64(-0.19444444444444445),np.float64(0.040740740740740744),1,0,0,1.3712658,target',5,1,2025-09-30_16h29.34.670,Exp Visual Search,,2025.1.1,59.97843175,2025-09-30 16h29.42.325164 +0530
38,0,38,np.float64(-0.43703703703703706),np.float64(0.03611111111111111),1,0,0,1.6004057,target',38,0,38,0,70.9145334,,10,70.9054519,70.9145334,70.9145334,0.0156757,72.5059125,np.float64(-0.43703703703703706),np.float64(0.03611111111111111),1,0,0,1.6004057,target',5,1,2025-09-30_16h29.34.670,Exp Visual Search,,2025.1.1,59.97843175,2025-09-30 16h29.42.325164 +0530
41,0,41,np.float64(-0.2324074074074074),np.float64(0.38425925925925924),1,0,0,1.4840933,target',41,0,41,0,76.5634442,,10,76.5543237,76.5634442,76.5634442,0.0157864,78.0384708,np.float64(-0.2324074074074074),np.float64(0.38425925925925924),1,0,0,1.4840933,target',5,1,2025-09-30_16h29.34.670,Exp Visual Search,,2025.1.1,59.97843175,2025-09-30 16h29.42.325164 +0530
42,0,42,np.float64(-0.36944444444444446),np.float64(0.29074074074074074),1,0,0,1.4673879,target',42,0,42,0,78.0643937,,10,78.0550136,78.0643937,78.0643937,0.0164406,79.5224738,np.float64(-0.36944444444444446),np.float64(0.29074074074074074),1,0,0,1.4673879,target',5,1,2025-09-30_16h29.34.670,Exp Visual Search,,2025.1.1,59.97843175,2025-09-30 16h29.42.325164 +0530
45,0,45,np.float64(-0.2740740740740741),np.float64(-0.44907407407407407),1,0,0,2.2660159,target',45,0,45,0,85.1324235,,10,85.1223692,85.1324235,85.1324235,0.0173149,87.3884395,np.float64(-0.2740740740740741),np.float64(-0.44907407407407407),1,0,0,2.2660159,target',5,1,2025-09-30_16h29.34.670,Exp Visual Search,,2025.1.1,59.97843175,2025-09-30 16h29.42.325164 +0530
46,0,46,np.float64(0.15185185185185185),np.float64(-0.34074074074074073),1,0,0,1.8794612,target',46,0,46,0,87.4194223,,10,87.4093393,87.4194223,87.4194223,0.0207894,89.2889011,np.float64(0.15185185185185185),np.float64(-0.34074074074074073),1,0,0,1.8794612,target',5,1,2025-09-30_16h29.34.670,Exp Visual Search,,2025.1.1,59.97843175,2025-09-30 16h29.42.325164 +0530
49,0,49,np.float64(0.17777777777777778),np.float64(-0.01574074074074074),1,0,0,1.7815323,target',49,0,49,0,92.5845849,,10,92.573331,92.5845849,92.5845849,0.0180807,94.354958,np.float64(0.17777777777777778),np.float64(-0.01574074074074074),1,0,0,1.7815323,target',5,1,2025-09-30_16h29.34.670,Exp Visual Search,,2025.1.1,59.97843175,2025-09-30 16h29.42.325164 +0530
53,0,53,np.float64(0.03333333333333333),np.float64(0.20462962962962963),1,0,0,1.4816978,target',53,0,53,0,99.4166294,,10,99.4063928,99.4166294,99.4166294,0.0184043,100.8881926,np.float64(0.03333333333333333),np.float64(0.20462962962962963),1,0,0,1.4816978,target',5,1,2025-09-30_16h29.34.670,Exp Visual Search,,2025.1.1,59.97843175,2025-09-30 16h29.42.325164 +0530
56,0,56,np.float64(0.46574074074074073),np.float64(0.3175925925925926),1,0,0,3.6324091,target',56,0,56,0,103.7319403,,10,103.7216759,103.7319403,103.7319403,0.0176096,107.354181,np.float64(0.46574074074074073),np.float64(0.3175925925925926),1,0,0,3.6324091,target',5,1,2025-09-30_16h29.34.670,Exp Visual Search,,2025.1.1,59.97843175,2025-09-30 16h29.42.325164 +0530
57,0,57,np.float64(-0.020370370370370372),np.float64(-0.42962962962962964),1,0,0,3.0630185,target',57,0,57,0,107.3842059,,10,107.3738315,107.3842059,107.3842059,0.0194098,110.436897,np.float64(-0.020370370370370372),np.float64(-0.42962962962962964),1,0,0,3.0630185,target',5,1,2025-09-30_16h29.34.670,Exp Visual Search,,2025.1.1,59.97843175,2025-09-30 16h29.42.325164 +0530
59,0,59,np.float64(0.4222222222222222),np.float64(0.004629629629629629),1,0,0,1.5960363,target',59,0,59,0,112.0014677,,10,111.9911135,112.0014677,112.0014677,0.0200618,113.5872419,np.float64(0.4222222222222222),np.float64(0.004629629629629629),1,0,0,1.5960363,target',5,1,2025-09-30_16h29.34.670,Exp Visual Search,,2025.1.1,59.97843175,2025-09-30 16h29.42.325164 +0530
60,0,60,np.float64(-0.48148148148148145),np.float64(0.13333333333333333),1,0,0,2.2496119,target',60,0,60,0,113.6133964,,10,113.6035116,113.6133964,113.6133964,0.016046,115.8531783,np.float64(-0.48148148148148145),np.float64(0.13333333333333333),1,0,0,2.2496119,target',5,1,2025-09-30_16h29.34.670,Exp Visual Search,,2025.1.1,59.97843175,2025-09-30 16h29.42.325164 +0530
62,0,62,np.float64(0.026851851851851852),np.float64(0.45092592592592595),1,0,0,1.9856439,target',62,0,62,0,117.6457045,,10,117.6344242,117.6457045,117.6457045,0.0145118,119.6201711,np.float64(0.026851851851851852),np.float64(0.45092592592592595),1,0,0,1.9856439,target',5,1,2025-09-30_16h29.34.670,Exp Visual Search,,2025.1.1,59.97843175,2025-09-30 16h29.42.325164 +0530
63,0,63,np.float64(-0.1935185185185185),np.float64(-0.4722222222222222),1,0,0,1.9471303,target',63,0,63,0,119.6503534,,10,119.6389899,119.6503534,119.6503534,0.0185761,121.5861585,np.float64(-0.1935185185185185),np.float64(-0.4722222222222222),1,0,0,1.9471303,target',5,1,2025-09-30_16h29.34.670,Exp Visual Search,,2025.1.1,59.97843175,2025-09-30 16h29.42.325164 +0530
64,0,64,np.float64(0.24259259259259258),np.float64(0.041666666666666664),1,0,0,1.5579671,target',64,0,64,0,121.6221528,,10,121.6115886,121.6221528,121.6221528,0.0253457,123.1696454,np.float64(0.24259259259259258),np.float64(0.041666666666666664),1,0,0,1.5579671,target',5,1,2025-09-30_16h29.34.670,Exp Visual Search,,2025.1.1,59.97843175,2025-09-30 16h29.42.325164 +0530
65,0,65,np.float64(0.06018518518518518),np.float64(-0.45925925925925926),1,0,0,2.8303582,target',65,0,65,0,123.1997667,,10,123.1890103,123.1997667,123.1997667,0.0191494,126.0194165,np.float64(0.06018518518518518),np.float64(-0.45925925925925926),1,0,0,2.8303582,target',5,1,2025-09-30_16h29.34.670,Exp Visual Search,,2025.1.1,59.97843175,2025-09-30 16h29.42.325164 +0530
66,0,66,np.float64(0.15185185185185185),np.float64(-0.012037037037037037),1,0,0,2.1221016,target',66,0,66,0,126.0591499,,10,126.0472437,126.0591499,126.0591499,0.0277307,128.1693927,np.float64(0.15185185185185185),np.float64(-0.012037037037037037),1,0,0,2.1221016,target',5,1,2025-09-30_16h29.34.670,Exp Visual Search,,2025.1.1,59.97843175,2025-09-30 16h29.42.325164 +0530
67,0,67,np.float64(0.4962962962962963),np.float64(-0.35648148148148145),1,0,0,1.6337633,target',67,0,67,0,128.196367,,10,128.1854501,128.196367,128.196367,0.0159048,129.819274,np.float64(0.4962962962962963),np.float64(-0.35648148148148145),1,0,0,1.6337633,target',5,1,2025-09-30_16h29.34.670,Exp Visual Search,,2025.1.1,59.97843175,2025-09-30 16h29.42.325164 +0530
68,0,68,np.float64(0.2675925925925926),np.float64(0.41944444444444445),1,0,0,2.0812882,target',68,0,68,0,129.8478223,,10,129.8374026,129.8478223,129.8478223,0.0179831,131.9187351,np.float64(0.2675925925925926),np.float64(0.41944444444444445),1,0,0,2.0812882,target',5,1,2025-09-30_16h29.34.670,Exp Visual Search,,2025.1.1,59.97843175,2025-09-30 16h29.42.325164 +0530
69,0,69,np.float64(0.08888888888888889),np.float64(0.4351851851851852),1,0,0,1.4014069,target',69,0,69,0,131.9433852,,10,131.9341631,131.9433852,131.9433852,0.0153389,133.3356633,np.float64(0.08888888888888889),np.float64(0.4351851851851852),1,0,0,1.4014069,target',5,1,2025-09-30_16h29.34.670,Exp Visual Search,,2025.1.1,59.97843175,2025-09-30 16h29.42.325164 +0530
70,0,70,np.float64(-0.20925925925925926),np.float64(0.11203703703703703),1,0,0,1.5988026,target',70,0,70,0,133.3623055,,10,133.3532581,133.3623055,133.3623055,0.0173821,134.952124,np.float64(-0.20925925925925926),np.float64(0.11203703703703703),1,0,0,1.5988026,target',5,1,2025-09-30_16h29.34.670,Exp Visual Search,,2025.1.1,59.97843175,2025-09-30 16h29.42.325164 +0530
73,0,73,np.float64(0.03148148148148148),np.float64(0.45555555555555555),1,0,0,1.6130064,target',73,0,73,0,138.1478925,,10,138.139002,138.1478925,138.1478925,0.0190077,139.7520791,np.float64(0.03148148148148148),np.float64(0.45555555555555555),1,0,0,1.6130064,target',5,1,2025-09-30_16h29.34.670,Exp Visual Search,,2025.1.1,59.97843175,2025-09-30 16h29.42.325164 +0530
77,0,77,np.float64(0.37592592592592594),np.float64(-0.07222222222222222),1,0,0,2.3733175,target',77,0,77,0,144.8367651,,10,144.827778,144.8367651,144.8367651,0.0266812,147.2011548,np.float64(0.37592592592592594),np.float64(-0.07222222222222222),1,0,0,2.3733175,target',5,1,2025-09-30_16h29.34.670,Exp Visual Search,,2025.1.1,59.97843175,2025-09-30 16h29.42.325164 +0530
80,0,80,np.float64(0.07407407407407407),np.float64(-0.01574074074074074),1,0,0,1.7503945,target',80,0,80,0,151.0597627,,10,151.0510659,151.0597627,151.0597627,0.0330377,152.801509,np.float64(0.07407407407407407),np.float64(-0.01574074074074074),1,0,0,1.7503945,target',5,1,2025-09-30_16h29.34.670,Exp Visual Search,,2025.1.1,59.97843175,2025-09-30 16h29.42.325164 +0530
81,0,81,np.float64(0.1648148148148148),np.float64(-0.20092592592592592),1,0,0,1.7049167,target',81,0,81,0,152.838448,,10,152.8293302,152.838448,152.838448,0.0277133,154.534288,np.float64(0.1648148148148148),np.float64(-0.20092592592592592),1,0,0,1.7049167,target',5,1,2025-09-30_16h29.34.670,Exp Visual Search,,2025.1.1,59.97843175,2025-09-30 16h29.42.325164 +0530
82,0,82,np.float64(-0.29814814814814816),np.float64(-0.3824074074074074),1,0,0,2.201419,target',82,0,82,0,154.5578048,,10,154.5489679,154.5578048,154.5578048,0.0145908,156.7504312,np.float64(-0.29814814814814816),np.float64(-0.3824074074074074),1,0,0,2.201419,target',5,1,2025-09-30_16h29.34.670,Exp Visual Search,,2025.1.1,59.97843175,2025-09-30 16h29.42.325164 +0530
83,0,83,np.float64(0.21296296296296297),np.float64(0.16574074074074074),1,0,0,2.8028047,target',83,0,83,0,156.7743337,,10,156.7654521,156.7743337,156.7743337,0.0149123,159.5683559,np.float64(0.21296296296296297),np.float64(0.16574074074074074),1,0,0,2.8028047,target',5,1,2025-09-30_16h29.34.670,Exp Visual Search,,2025.1.1,59.97843175,2025-09-30 16h29.42.325164 +0530
85,0,85,np.float64(-0.3333333333333333),np.float64(0.3712962962962963),1,0,0,2.0526553,target',85,0,85,0,162.1070543,,10,162.0979489,162.1070543,162.1070543,0.0142057,164.15066,np.float64(-0.3333333333333333),np.float64(0.3712962962962963),1,0,0,2.0526553,target',5,1,2025-09-30_16h29.34.670,Exp Visual Search,,2025.1.1,59.97843175,2025-09-30 16h29.42.325164 +0530
86,0,86,np.float64(-0.19722222222222222),np.float64(-0.012037037037037037),1,0,0,1.4485022,target',86,0,86,0,164.1794961,,10,164.1682971,164.1794961,164.1794961,0.0174738,165.6168418,np.float64(-0.19722222222222222),np.float64(-0.012037037037037037),1,0,0,1.4485022,target',5,1,2025-09-30_16h29.34.670,Exp Visual Search,,2025.1.1,59.97843175,2025-09-30 16h29.42.325164 +0530
92,0,92,np.float64(-0.075),np.float64(-0.08796296296296297),1,0,0,1.2317419,target',92,0,92,0,176.2125603,,10,176.2010383,176.2125603,176.2125603,0.0178641,177.4328361,np.float64(-0.075),np.float64(-0.08796296296296297),1,0,0,1.2317419,target',5,1,2025-09-30_16h29.34.670,Exp Visual Search,,2025.1.1,59.97843175,2025-09-30 16h29.42.325164 +0530
93,0,93,np.float64(0.30277777777777776),np.float64(0.16111111111111112),1,0,0,1.7896701,target',93,0,93,0,177.4707579,,10,177.4607498,177.4707579,177.4707579,0.0277849,179.250516,np.float64(0.30277777777777776),np.float64(0.16111111111111112),1,0,0,1.7896701,target',5,1,2025-09-30_16h29.34.670,Exp Visual Search,,2025.1.1,59.97843175,2025-09-30 16h29.42.325164 +0530
95,0,95,np.float64(-0.08796296296296297),np.float64(-0.375),1,0,0,3.0653657,target',95,0,95,0,180.595382,,10,180.5847103,180.595382,180.595382,0.0188814,183.6501423,np.float64(-0.08796296296296297),np.float64(-0.375),1,0,0,3.0653657,target',5,1,2025-09-30_16h29.34.670,Exp Visual Search,,2025.1.1,59.97843175,2025-09-30 16h29.42.325164 +0530
99,0,99,np.float64(0.15555555555555556),np.float64(-0.07314814814814814),1,0,0,2.9003143,target',99,0,99,0,188.6589923,,10,188.6482238,188.6589923,188.6589923,0.0160984,191.5485803,np.float64(0.15555555555555556),np.float64(-0.07314814814814814),1,0,0,2.9003143,target',5,1,2025-09-30_16h29.34.670,Exp Visual Search,,2025.1.1,59.97843175,2025-09-30 16h29.42.325164 +0530
100,0,100,np.float64(0.03888888888888889),np.float64(-0.22870370370370371),1,0,0,1.5350852,target',100,0,100,0,191.5722675,,10,191.5635065,191.5722675,191.5722675,0.014829,193.0986361,np.float64(0.03888888888888889),np.float64(-0.22870370370370371),1,0,0,1.5350852,target',5,1,2025-09-30_16h29.34.670,Exp Visual Search,,2025.1.1,59.97843175,2025-09-30 16h29.42.325164 +0530
101,0,101,np.float64(-0.22407407407407406),np.float64(-0.4546296296296296),1,0,0,3.8177141,target',101,0,101,0,193.1243542,,10,193.1140658,193.1243542,193.1243542,0.0153333,196.9318274,np.float64(-0.22407407407407406),np.float64(-0.4546296296296296),1,0,0,3.8177141,target',5,1,2025-09-30_16h29.34.670,Exp Visual Search,,2025.1.1,59.97843175,2025-09-30 16h29.42.325164 +0530
102,0,102,np.float64(0.3398148148148148),np.float64(0.18703703703703703),1,0,0,2.0513055,target',102,0,102,0,196.9581211,,10,196.9469455,196.9581211,196.9581211,0.015022,198.9983092,np.float64(0.3398148148148148),np.float64(0.18703703703703703),1,0,0,2.0513055,target',5,1,2025-09-30_16h29.34.670,Exp Visual Search,,2025.1.1,59.97843175,2025-09-30 16h29.42.325164 +0530
105,0,105,np.float64(0.02962962962962963),np.float64(-0.28425925925925927),1,0,0,1.4987287,target',105,0,105,0,203.0096448,,10,202.9991215,203.0096448,203.0096448,0.0175311,204.4979222,np.float64(0.02962962962962963),np.float64(-0.28425925925925927),1,0,0,1.4987287,target',5,1,2025-09-30_16h29.34.670,Exp Visual Search,,2025.1.1,59.97843175,2025-09-30 16h29.42.325164 +0530
106,0,106,np.float64(0.40370370370370373),np.float64(-0.2796296296296296),1,0,0,2.2665289,target',106,0,106,0,204.5248129,,10,204.5146606,204.5248129,204.5248129,0.0165953,206.7812361,np.float64(0.40370370370370373),np.float64(-0.2796296296296296),1,0,0,2.2665289,target',5,1,2025-09-30_16h29.34.670,Exp Visual Search,,2025.1.1,59.97843175,2025-09-30 16h29.42.325164 +0530
107,0,107,np.float64(-0.35185185185185186),np.float64(-0.40370370370370373),1,0,0,2.2158046,target',107,0,107,0,206.8078474,,10,206.7984924,206.8078474,206.8078474,0.0171188,209.0143472,np.float64(-0.35185185185185186),np.float64(-0.40370370370370373),1,0,0,2.2158046,target',5,1,2025-09-30_16h29.34.670,Exp Visual Search,,2025.1.1,59.97843175,2025-09-30 16h29.42.325164 +0530
108,0,108,np.float64(0.4083333333333333),np.float64(-0.3175925925925926),1,0,0,2.2807381,target',108,0,108,0,209.0429633,,10,209.0334173,209.0429633,209.0429633,0.0189539,211.3142144,np.float64(0.4083333333333333),np.float64(-0.3175925925925926),1,0,0,2.2807381,target',5,1,2025-09-30_16h29.34.670,Exp Visual Search,,2025.1.1,59.97843175,2025-09-30 16h29.42.325164 +0530
112,0,112,np.float64(-0.17962962962962964),np.float64(-0.12222222222222222),1,0,0,2.1333772,target',112,0,112,0,217.0227092,,10,217.0134927,217.0227092,217.0227092,0.0162422,219.1469103,np.float64(-0.17962962962962964),np.float64(-0.12222222222222222),1,0,0,2.1333772,target',5,1,2025-09-30_16h29.34.670,Exp Visual Search,,2025.1.1,59.97843175,2025-09-30 16h29.42.325164 +0530
115,0,115,np.float64(0.3037037037037037),np.float64(-0.4527777777777778),1,0,0,2.2169879,target',115,0,115,0,223.7565674,,10,223.7464768,223.7565674,223.7565674,0.0160057,225.963551,np.float64(0.3037037037037037),np.float64(-0.4527777777777778),1,0,0,2.2169879,target',5,1,2025-09-30_16h29.34.670,Exp Visual Search,,2025.1.1,59.97843175,2025-09-30 16h29.42.325164 +0530
121,0,121,np.float64(0.38981481481481484),np.float64(-0.11574074074074074),1,0,0,1.3984478,target',121,0,121,0,233.5907188,,10,233.5808221,233.5907188,233.5907188,0.0172922,234.9793095,np.float64(0.38981481481481484),np.float64(-0.11574074074074074),1,0,0,1.3984478,target',5,1,2025-09-30_16h29.34.670,Exp Visual Search,,2025.1.1,59.97843175,2025-09-30 16h29.42.325164 +0530
125,0,125,np.float64(-0.3398148148148148),np.float64(-0.37037037037037035),1,0,0,1.1519213,target',125,0,125,0,239.7872362,,10,239.7770672,239.7872362,239.7872362,0.0306531,240.9290391,np.float64(-0.3398148148148148),np.float64(-0.37037037037037035),1,0,0,1.1519213,target',5,1,2025-09-30_16h29.34.670,Exp Visual Search,,2025.1.1,59.97843175,2025-09-30 16h29.42.325164 +0530
126,0,126,np.float64(0.2722222222222222),np.float64(0.2962962962962963),1,0,0,2.5660413,target',126,0,126,0,240.9576357,,10,240.946277,240.9576357,240.9576357,0.0170983,243.5123835,np.float64(0.2722222222222222),np.float64(0.2962962962962963),1,0,0,2.5660413,target',5,1,2025-09-30_16h29.34.670,Exp Visual Search,,2025.1.1,59.97843175,2025-09-30 16h29.42.325164 +0530
128,0,128,np.float64(-0.08055555555555556),np.float64(-0.11574074074074074),1,0,0,1.8354177,target',128,0,128,0,244.7534838,,10,244.7438961,244.7534838,244.7534838,0.0151453,246.579409,np.float64(-0.08055555555555556),np.float64(-0.11574074074074074),1,0,0,1.8354177,target',5,1,2025-09-30_16h29.34.670,Exp Visual Search,,2025.1.1,59.97843175,2025-09-30 16h29.42.325164 +0530
129,0,129,np.float64(-0.41388888888888886),np.float64(-0.2916666666666667),1,0,0,1.5653941,target',129,0,129,0,246.6069362,,10,246.5965303,246.6069362,246.6069362,0.016908,248.1619756,np.float64(-0.41388888888888886),np.float64(-0.2916666666666667),1,0,0,1.5653941,target',5,1,2025-09-30_16h29.34.670,Exp Visual Search,,2025.1.1,59.97843175,2025-09-30 16h29.42.325164 +0530
130,0,130,np.float64(0.19537037037037036),np.float64(-0.024074074074074074),1,0,0,1.7140316,target',130,0,130,0,248.1907141,,10,248.1811356,248.1907141,248.1907141,0.0190626,249.8952192,np.float64(0.19537037037037036),np.float64(-0.024074074074074074),1,0,0,1.7140316,target',5,1,2025-09-30_16h29.34.670,Exp Visual Search,,2025.1.1,59.97843175,2025-09-30 16h29.42.325164 +0530
131,0,131,np.float64(-0.1111111111111111),np.float64(0.4546296296296296),1,0,0,2.6484561,target',131,0,131,0,249.9231722,,10,249.9128383,249.9231722,249.9231722,0.0175178,252.5613439,np.float64(-0.1111111111111111),np.float64(0.4546296296296296),1,0,0,2.6484561,target',5,1,2025-09-30_16h29.34.670,Exp Visual Search,,2025.1.1,59.97843175,2025-09-30 16h29.42.325164 +0530
132,0,132,np.float64(-0.3351851851851852),np.float64(0.325),1,0,0,1.8490729,target',132,0,132,0,252.589316,,10,252.5791298,252.589316,252.589316,0.0176955,254.4282698,np.float64(-0.3351851851851852),np.float64(0.325),1,0,0,1.8490729,target',5,1,2025-09-30_16h29.34.670,Exp Visual Search,,2025.1.1,59.97843175,2025-09-30 16h29.42.325164 +0530
133,0,133,np.float64(0.21481481481481482),np.float64(-0.02962962962962963),1,0,0,1.799631,target',133,0,133,0,254.4544542,,10,254.4450436,254.4544542,254.4544542,0.0166751,256.2447233,np.float64(0.21481481481481482),np.float64(-0.02962962962962963),1,0,0,1.799631,target',5,1,2025-09-30_16h29.34.670,Exp Visual Search,,2025.1.1,59.97843175,2025-09-30 16h29.42.325164 +0530
135,0,135,np.float64(-0.11203703703703703),np.float64(0.14814814814814814),1,0,0,1.2138695,target',135,0,135,0,258.0900553,,10,258.0803803,258.0900553,258.0900553,0.0191167,259.2942959,np.float64(-0.11203703703703703),np.float64(0.14814814814814814),1,0,0,1.2138695,target',5,1,2025-09-30_16h29.34.670,Exp Visual Search,,2025.1.1,59.97843175,2025-09-30 16h29.42.325164 +0530
136,0,136,np.float64(-0.16666666666666666),np.float64(-0.03888888888888889),1,0,0,1.4141808,target',136,0,136,0,259.324615,,10,259.3138567,259.324615,259.324615,0.0194651,260.7281052,np.float64(-0.16666666666666666),np.float64(-0.03888888888888889),1,0,0,1.4141808,target',5,1,2025-09-30_16h29.34.670,Exp Visual Search,,2025.1.1,59.97843175,2025-09-30 16h29.42.325164 +0530
137,0,137,np.float64(-0.2777777777777778),np.float64(-0.08518518518518518),1,0,0,1.3834713,target',137,0,137,0,260.754585,,10,260.743984,260.754585,260.754585,0.0157723,262.1275045,np.float64(-0.2777777777777778),np.float64(-0.08518518518518518),1,0,0,1.3834713,target',5,1,2025-09-30_16h29.34.670,Exp Visual Search,,2025.1.1,59.97843175,2025-09-30 16h29.42.325164 +0530
138,0,138,np.float64(0.32407407407407407),np.float64(0.006481481481481481),1,0,0,1.9825807,target',138,0,138,0,262.1559506,,10,262.1449525,262.1559506,262.1559506,0.017353,264.1275796,np.float64(0.32407407407407407),np.float64(0.006481481481481481),1,0,0,1.9825807,target',5,1,2025-09-30_16h29.34.670,Exp Visual Search,,2025.1.1,59.97843175,2025-09-30 16h29.42.325164 +0530
140,0,140,np.float64(0.46944444444444444),np.float64(-0.4046296296296296),1,0,0,2.0811545,target',140,0,140,0,266.0745676,,10,266.0629021,266.0745676,266.0745676,0.0177481,268.1441666,np.float64(0.46944444444444444),np.float64(-0.4046296296296296),1,0,0,2.0811545,target',5,1,2025-09-30_16h29.34.670,Exp Visual Search,,2025.1.1,59.97843175,2025-09-30 16h29.42.325164 +0530
143,0,143,np.float64(-0.3731481481481482),np.float64(0.47685185185185186),1,0,0,2.7145192,target',143,0,143,0,272.2735626,,10,272.2626014,272.2735626,272.2735626,0.0189975,274.9772111,np.float64(-0.3731481481481482),np.float64(0.47685185185185186),1,0,0,2.7145192,target',5,1,2025-09-30_16h29.34.670,Exp Visual Search,,2025.1.1,59.97843175,2025-09-30 16h29.42.325164 +0530
145,0,145,np.float64(0.43333333333333335),np.float64(0.22777777777777777),1,0,0,3.2660026,target',145,0,145,0,276.9889746,,10,276.9777258,276.9889746,276.9889746,0.0173746,280.2438055,np.float64(0.43333333333333335),np.float64(0.22777777777777777),1,0,0,3.2660026,target',5,1,2025-09-30_16h29.34.670,Exp Visual Search,,2025.1.1,59.97843175,2025-09-30 16h29.42.325164 +0530
147,0,147,np.float64(-0.005555555555555556),np.float64(-0.24444444444444444),1,0,0,1.5683274,target',147,0,147,0,282.3531252,,10,282.3423525,282.3531252,282.3531252,0.0158867,283.910753,np.float64(-0.005555555555555556),np.float64(-0.24444444444444444),1,0,0,1.5683274,target',5,1,2025-09-30_16h29.34.670,Exp Visual Search,,2025.1.1,59.97843175,2025-09-30 16h29.42.325164 +0530
150,0,150,np.float64(-0.12314814814814815),np.float64(-0.3138888888888889),1,0,0,2.1505676,target',150,0,150,0,288.4701698,,10,288.4592817,288.4701698,288.4701698,0.0168713,290.609951,np.float64(-0.12314814814814815),np.float64(-0.3138888888888889),1,0,0,2.1505676,target',5,1,2025-09-30_16h29.34.670,Exp Visual Search,,2025.1.1,59.97843175,2025-09-30 16h29.42.325164 +0530
153,0,153,np.float64(0.2953703703703704),np.float64(0.08425925925925926),1,0,0,2.1332546,target',153,0,153,0,294.003347,,10,293.9925825,294.003347,294.003347,0.0162649,296.1259178,np.float64(0.2953703703703704),np.float64(0.08425925925925926),1,0,0,2.1332546,target',5,1,2025-09-30_16h29.34.670,Exp Visual Search,,2025.1.1,59.97843175,2025-09-30 16h29.42.325164 +0530
156,0,156,np.float64(0.23055555555555557),np.float64(-0.10648148148148148),1,0,0,1.4819337,target',156,0,156,0,300.9205758,,10,300.9098615,300.9205758,300.9205758,0.0176045,302.39184,np.float64(0.23055555555555557),np.float64(-0.10648148148148148),1,0,0,1.4819337,target',5,1,2025-09-30_16h29.34.670,Exp Visual Search,,2025.1.1,59.97843175,2025-09-30 16h29.42.325164 +0530
159,0,159,np.float64(0.3972222222222222),np.float64(0.006481481481481481),1,0,0,1.6658305,target',159,0,159,0,305.6202827,,10,305.609861,305.6202827,305.6202827,0.0180629,307.2757349,np.float64(0.3972222222222222),np.float64(0.006481481481481481),1,0,0,1.6658305,target',5,1,2025-09-30_16h29.34.670,Exp Visual Search,,2025.1.1,59.97843175,2025-09-30 16h29.42.325164 +0530
160,0,160,np.float64(0.09722222222222222),np.float64(-0.4583333333333333),1,0,0,2.5959471,target',160,0,160,0,307.306168,,10,307.2957931,307.306168,307.306168,0.0199737,309.8917942,np.float64(0.09722222222222222),np.float64(-0.4583333333333333),1,0,0,2.5959471,target',5,1,2025-09-30_16h29.34.670,Exp Visual Search,,2025.1.1,59.97843175,2025-09-30 16h29.42.325164 +0530
169,0,169,np.float64(-0.23148148148148148),np.float64(-0.34814814814814815),1,0,0,1.8843923,target',169,0,169,0,324.3348006,,10,324.3239732,324.3348006,324.3348006,0.0163866,326.2084808,np.float64(-0.23148148148148148),np.float64(-0.34814814814814815),1,0,0,1.8843923,target',5,1,2025-09-30_16h29.34.670,Exp Visual Search,,2025.1.1,59.97843175,2025-09-30 16h29.42.325164 +0530
170,0,170,np.float64(-0.2935185185185185),np.float64(0.2111111111111111),1,0,0,3.0120746,target',170,0,170,0,326.2402343,,10,326.22896,326.2402343,326.2402343,0.0201998,329.241128,np.float64(-0.2935185185185185),np.float64(0.2111111111111111),1,0,0,3.0120746,target',5,1,2025-09-30_16h29.34.670,Exp Visual Search,,2025.1.1,59.97843175,2025-09-30 16h29.42.325164 +0530
171,0,171,np.float64(-0.018518518518518517),np.float64(0.25),1,0,0,2.3615653,target',171,0,171,0,329.2743238,,10,329.2630834,329.2743238,329.2743238,0.0217404,331.6247616,np.float64(-0.018518518518518517),np.float64(0.25),1,0,0,2.3615653,target',5,1,2025-09-30_16h29.34.670,Exp Visual Search,,2025.1.1,59.97843175,2025-09-30 16h29.42.325164 +0530
173,0,173,np.float64(0.45092592592592595),np.float64(0.462037037037037),1,0,0,2.8305448,target',173,0,173,0,333.4546567,,10,333.443478,333.4546567,333.4546567,0.0189222,336.274136,np.float64(0.45092592592592595),np.float64(0.462037037037037),1,0,0,2.8305448,target',5,1,2025-09-30_16h29.34.670,Exp Visual Search,,2025.1.1,59.97843175,2025-09-30 16h29.42.325164 +0530
176,0,176,np.float64(0.3453703703703704),np.float64(-0.049074074074074076),1,0,0,1.5459881,target',176,0,176,0,340.3555298,,10,340.3439822,340.3555298,340.3555298,0.0197505,341.8900857,np.float64(0.3453703703703704),np.float64(-0.049074074074074076),1,0,0,1.5459881,target',5,1,2025-09-30_16h29.34.670,Exp Visual Search,,2025.1.1,59.97843175,2025-09-30 16h29.42.325164 +0530
177,0,177,np.float64(-0.44907407407407407),np.float64(-0.4527777777777778),1,0,0,2.7799019,target',177,0,177,0,341.9201817,,10,341.9097592,341.9201817,341.9201817,0.0193959,344.6897656,np.float64(-0.44907407407407407),np.float64(-0.4527777777777778),1,0,0,2.7799019,target',5,1,2025-09-30_16h29.34.670,Exp Visual Search,,2025.1.1,59.97843175,2025-09-30 16h29.42.325164 +0530
178,0,178,np.float64(0.45740740740740743),np.float64(0.42592592592592593),1,0,0,2.6768385,target',178,0,178,0,344.7187543,,10,344.7071898,344.7187543,344.7187543,0.0171778,347.384169,np.float64(0.45740740740740743),np.float64(0.42592592592592593),1,0,0,2.6768385,target',5,1,2025-09-30_16h29.34.670,Exp Visual Search,,2025.1.1,59.97843175,2025-09-30 16h29.42.325164 +0530
183,0,183,np.float64(-0.12407407407407407),np.float64(0.14537037037037037),1,0,0,2.1539854,target',183,0,183,0,355.5469411,,10,355.5356927,355.5469411,355.5469411,0.0303764,357.6897888,np.float64(-0.12407407407407407),np.float64(0.14537037037037037),1,0,0,2.1539854,target',5,1,2025-09-30_16h29.34.670,Exp Visual Search,,2025.1.1,59.97843175,2025-09-30 16h29.42.325164 +0530
186,0,186,np.float64(0.25462962962962965),np.float64(0.30462962962962964),1,0,0,2.413808,target',186,0,186,0,362.4180591,,10,362.4079774,362.4180591,362.4180591,0.0185006,364.8219284,np.float64(0.25462962962962965),np.float64(0.30462962962962964),1,0,0,2.413808,target',5,1,2025-09-30_16h29.34.670,Exp Visual Search,,2025.1.1,59.97843175,2025-09-30 16h29.42.325164 +0530
187,0,187,np.float64(-0.017592592592592594),np.float64(0.42407407407407405),1,0,0,2.479581,target',187,0,187,0,364.8531409,,10,364.8422918,364.8531409,364.8531409,0.0198108,367.321988,np.float64(-0.017592592592592594),np.float64(0.42407407407407405),1,0,0,2.479581,target',5,1,2025-09-30_16h29.34.670,Exp Visual Search,,2025.1.1,59.97843175,2025-09-30 16h29.42.325164 +0530
188,0,188,np.float64(-0.45740740740740743),np.float64(0.20555555555555555),1,0,0,2.3688297,target',188,0,188,0,367.3636172,,10,367.3529524,367.3636172,367.3636172,0.0306909,369.7218916,np.float64(-0.45740740740740743),np.float64(0.20555555555555555),1,0,0,2.3688297,target',5,1,2025-09-30_16h29.34.670,Exp Visual Search,,2025.1.1,59.97843175,2025-09-30 16h29.42.325164 +0530
189,0,189,np.float64(0.44537037037037036),np.float64(0.05092592592592592),1,0,0,3.1632787,target',189,0,189,0,369.7638184,,10,369.7529404,369.7638184,369.7638184,0.0307789,372.9163509,np.float64(0.44537037037037036),np.float64(0.05092592592592592),1,0,0,3.1632787,target',5,1,2025-09-30_16h29.34.670,Exp Visual Search,,2025.1.1,59.97843175,2025-09-30 16h29.42.325164 +0530
194,0,194,np.float64(-0.10555555555555556),np.float64(0.3148148148148148),1,0,0,2.1509403,target',194,0,194,0,384.0468317,,10,384.0363579,384.0468317,384.0468317,0.031327,386.1874106,np.float64(-0.10555555555555556),np.float64(0.3148148148148148),1,0,0,2.1509403,target',5,1,2025-09-30_16h29.34.670,Exp Visual Search,,2025.1.1,59.97843175,2025-09-30 16h29.42.325164 +0530
196,0,196,np.float64(-0.47314814814814815),np.float64(0.46944444444444444),1,0,0,4.3646401,target',196,0,196,0,387.8666512,,10,387.8559487,387.8666512,387.8666512,0.0175122,392.2206847,np.float64(-0.47314814814814815),np.float64(0.46944444444444444),1,0,0,4.3646401,target',5,1,2025-09-30_16h29.34.670,Exp Visual Search,,2025.1.1,59.97843175,2025-09-30 16h29.42.325164 +0530
197,0,197,np.float64(-0.14537037037037037),np.float64(-0.45185185185185184),1,0,0,2.6659749,target',197,0,197,0,392.248787,,10,392.2381449,392.248787,392.248787,0.0172323,394.904234,np.float64(-0.14537037037037037),np.float64(-0.45185185185185184),1,0,0,2.6659749,target',5,1,2025-09-30_16h29.34.670,Exp Visual Search,,2025.1.1,59.97843175,2025-09-30 16h29.42.325164 +0530
,,,,,,,,,,,,,,,,,,,,,,,,,,,,,,,,,,,,
,,,,,,,,average for 5 dist,,1.894755062,5,,,,,,,,,,,,,,,,,,,,,,,,,
,,,,,,,,average for 10 dist,,2.081020186,10,,,,,,,,,,,,,,,,,,,,,,,,,
,,,,,,,,slope,,0.03725302478,,,,,,,,,,,,,,,,,,,,,,,,,,