thisN,thisTrialN,thisRepN,mouse.x,mouse.y,mouse.leftButton,mouse.midButton,mouse.rightButton,mouse.time,mouse.clicked_name,trials.thisRepN,trials.thisTrialN,trials.thisN,trials.thisIndex,thisRow.t,notes,num_distr,trial.started,Fixation.started,target.started,mouse.started,trial.stopped,trials.mouse.x,trials.mouse.y,trials.mouse.leftButton,trials.mouse.midButton,trials.mouse.rightButton,trials.mouse.time,trials.mouse.clicked_name,participant,session,date,expName,expVersion,psychopyVersion,frameRate,expStart
1,0,1,np.float64(0.4462962962962963),np.float64(-0.41759259259259257),1,0,0,2.1540283,target',1,0,1,0,1.9156589,,5,1.9058434,1.9156589,1.9156589,0.0162756,4.059989,np.float64(0.4462962962962963),np.float64(-0.41759259259259257),1,0,0,2.1540283,target',4,1,2025-09-30_15h54.49.194,Exp Visual Search,,2025.1.1,60.1169997,2025-09-30 15h55.00.821456 +0530
2,0,2,np.float64(0.17222222222222222),np.float64(0.3907407407407407),1,0,0,2.3007178,target',2,0,2,0,4.082161,,5,4.0746312,4.082161,4.082161,0.0144155,6.3754626,np.float64(0.17222222222222222),np.float64(0.3907407407407407),1,0,0,2.3007178,target',4,1,2025-09-30_15h54.49.194,Exp Visual Search,,2025.1.1,60.1169997,2025-09-30 15h55.00.821456 +0530
3,0,3,np.float64(-0.37777777777777777),np.float64(-0.34629629629629627),1,0,0,2.1822042,target',3,0,3,0,6.4006695,,5,6.3933146,6.4006695,6.4006695,0.0175765,8.5756299,np.float64(-0.37777777777777777),np.float64(-0.34629629629629627),1,0,0,2.1822042,target',4,1,2025-09-30_15h54.49.194,Exp Visual Search,,2025.1.1,60.1169997,2025-09-30 15h55.00.821456 +0530
5,0,5,np.float64(-0.2611111111111111),np.float64(0.15555555555555556),1,0,0,1.3344734,target',5,0,5,0,10.2643226,,5,10.2573134,10.2643226,10.2643226,0.0147193,11.5919076,np.float64(-0.2611111111111111),np.float64(0.15555555555555556),1,0,0,1.3344734,target',4,1,2025-09-30_15h54.49.194,Exp Visual Search,,2025.1.1,60.1169997,2025-09-30 15h55.00.821456 +0530
7,0,7,np.float64(0.001851851851851852),np.float64(-0.16574074074074074),1,0,0,1.4847195,target',7,0,7,0,13.7306736,,5,13.7236784,13.7306736,13.7306736,0.0148007,15.2085171,np.float64(0.001851851851851852),np.float64(-0.16574074074074074),1,0,0,1.4847195,target',4,1,2025-09-30_15h54.49.194,Exp Visual Search,,2025.1.1,60.1169997,2025-09-30 15h55.00.821456 +0530
9,0,9,np.float64(0.09166666666666666),np.float64(-0.12314814814814815),1,0,0,1.3089769,target',9,0,9,0,18.0939726,,5,18.0823011,18.0939726,18.0939726,0.0240459,19.3913795,np.float64(0.09166666666666666),np.float64(-0.12314814814814815),1,0,0,1.3089769,target',4,1,2025-09-30_15h54.49.194,Exp Visual Search,,2025.1.1,60.1169997,2025-09-30 15h55.00.821456 +0530
15,0,15,np.float64(-0.2972222222222222),np.float64(-0.14907407407407408),1,0,0,1.7489996,target',15,0,15,0,28.8657075,,5,28.8581774,28.8657075,28.8657075,0.0165253,30.6072876,np.float64(-0.2972222222222222),np.float64(-0.14907407407407408),1,0,0,1.7489996,target',4,1,2025-09-30_15h54.49.194,Exp Visual Search,,2025.1.1,60.1169997,2025-09-30 15h55.00.821456 +0530
17,0,17,np.float64(-0.13240740740740742),np.float64(-0.2111111111111111),1,0,0,3.1637875,target',17,0,17,0,34.2843168,,5,34.275808,34.2843168,34.2843168,0.0180619,37.4396723,np.float64(-0.13240740740740742),np.float64(-0.2111111111111111),1,0,0,3.1637875,target',4,1,2025-09-30_15h54.49.194,Exp Visual Search,,2025.1.1,60.1169997,2025-09-30 15h55.00.821456 +0530
18,0,18,np.float64(-0.1824074074074074),np.float64(0.16111111111111112),1,0,0,1.5682782,target',18,0,18,0,37.4639944,,5,37.4545111,37.4639944,37.4639944,0.0146974,39.0228529,np.float64(-0.1824074074074074),np.float64(0.16111111111111112),1,0,0,1.5682782,target',4,1,2025-09-30_15h54.49.194,Exp Visual Search,,2025.1.1,60.1169997,2025-09-30 15h55.00.821456 +0530
19,0,19,np.float64(0.06851851851851852),np.float64(-0.44351851851851853),1,0,0,2.0411939,target',19,0,19,0,39.0429175,,5,39.0324831,39.0429175,39.0429175,0.0095206,41.0737912,np.float64(0.06851851851851852),np.float64(-0.44351851851851853),1,0,0,2.0411939,target',4,1,2025-09-30_15h54.49.194,Exp Visual Search,,2025.1.1,60.1169997,2025-09-30 15h55.00.821456 +0530
21,0,21,np.float64(-0.20925925925925926),np.float64(-0.37777777777777777),1,0,0,1.5433251,target',21,0,21,0,42.8595373,,5,42.8471334,42.8595373,42.8595373,0.0231939,44.3905539,np.float64(-0.20925925925925926),np.float64(-0.37777777777777777),1,0,0,1.5433251,target',4,1,2025-09-30_15h54.49.194,Exp Visual Search,,2025.1.1,60.1169997,2025-09-30 15h55.00.821456 +0530
22,0,22,np.float64(-0.4898148148148148),np.float64(-0.046296296296296294),1,0,0,1.3207522,target',22,0,22,0,44.4332201,,5,44.4185165,44.4332201,44.4332201,0.0277218,45.7393751,np.float64(-0.4898148148148148),np.float64(-0.046296296296296294),1,0,0,1.3207522,target',4,1,2025-09-30_15h54.49.194,Exp Visual Search,,2025.1.1,60.1169997,2025-09-30 15h55.00.821456 +0530
23,0,23,np.float64(-0.4074074074074074),np.float64(-0.3768518518518518),1,0,0,1.1861574,target',23,0,23,0,45.76448,,5,45.7543355,45.76448,45.76448,0.0147384,46.9406134,np.float64(-0.4074074074074074),np.float64(-0.3768518518518518),1,0,0,1.1861574,target',4,1,2025-09-30_15h54.49.194,Exp Visual Search,,2025.1.1,60.1169997,2025-09-30 15h55.00.821456 +0530
25,0,25,np.float64(-0.25092592592592594),np.float64(0.4388888888888889),1,0,0,1.6604962,target',25,0,25,0,48.6762747,,5,48.6629794,48.6762747,48.6762747,0.0222041,50.323572,np.float64(-0.25092592592592594),np.float64(0.4388888888888889),1,0,0,1.6604962,target',4,1,2025-09-30_15h54.49.194,Exp Visual Search,,2025.1.1,60.1169997,2025-09-30 15h55.00.821456 +0530
27,0,27,np.float64(-0.2111111111111111),np.float64(0.05185185185185185),1,0,0,1.6297162,target',27,0,27,0,51.8917346,,5,51.8762557,51.8917346,51.8917346,0.0195337,53.5061591,np.float64(-0.2111111111111111),np.float64(0.05185185185185185),1,0,0,1.6297162,target',4,1,2025-09-30_15h54.49.194,Exp Visual Search,,2025.1.1,60.1169997,2025-09-30 15h55.00.821456 +0530
29,0,29,np.float64(-0.2740740740740741),np.float64(-0.13240740740740742),1,0,0,1.4403732,target',29,0,29,0,55.4598168,,5,55.4495355,55.4598168,55.4598168,0.0104986,56.8900415,np.float64(-0.2740740740740741),np.float64(-0.13240740740740742),1,0,0,1.4403732,target',4,1,2025-09-30_15h54.49.194,Exp Visual Search,,2025.1.1,60.1169997,2025-09-30 15h55.00.821456 +0530
38,0,38,np.float64(-0.45092592592592595),np.float64(0.44722222222222224),1,0,0,1.7684363,target',38,0,38,0,76.9127146,,5,76.9033388,76.9127146,76.9127146,0.0141141,78.6719101,np.float64(-0.45092592592592595),np.float64(0.44722222222222224),1,0,0,1.7684363,target',4,1,2025-09-30_15h54.49.194,Exp Visual Search,,2025.1.1,60.1169997,2025-09-30 15h55.00.821456 +0530
39,0,39,np.float64(0.3861111111111111),np.float64(0.16666666666666666),1,0,0,1.9653948,target',39,0,39,0,78.70032,,5,78.6895352,78.70032,78.70032,0.0173221,80.6550543,np.float64(0.3861111111111111),np.float64(0.16666666666666666),1,0,0,1.9653948,target',4,1,2025-09-30_15h54.49.194,Exp Visual Search,,2025.1.1,60.1169997,2025-09-30 15h55.00.821456 +0530
41,0,41,np.float64(-0.3824074074074074),np.float64(0.34074074074074073),1,0,0,1.5044871,target',41,0,41,0,82.192565,,5,82.1833467,82.192565,82.192565,0.0129139,83.6879369,np.float64(-0.3824074074074074),np.float64(0.34074074074074073),1,0,0,1.5044871,target',4,1,2025-09-30_15h54.49.194,Exp Visual Search,,2025.1.1,60.1169997,2025-09-30 15h55.00.821456 +0530
42,0,42,np.float64(-0.1935185185185185),np.float64(0.1787037037037037),1,0,0,1.2499413,target',42,0,42,0,83.7138808,,5,83.7038344,83.7138808,83.7138808,0.0156653,84.9538876,np.float64(-0.1935185185185185),np.float64(0.1787037037037037),1,0,0,1.2499413,target',4,1,2025-09-30_15h54.49.194,Exp Visual Search,,2025.1.1,60.1169997,2025-09-30 15h55.00.821456 +0530
43,0,43,np.float64(0.2657407407407407),np.float64(0.22592592592592592),1,0,0,3.4839368,target',43,0,43,0,84.9808018,,5,84.9701986,84.9808018,84.9808018,0.0160871,88.4542514,np.float64(0.2657407407407407),np.float64(0.22592592592592592),1,0,0,3.4839368,target',4,1,2025-09-30_15h54.49.194,Exp Visual Search,,2025.1.1,60.1169997,2025-09-30 15h55.00.821456 +0530
44,0,44,np.float64(-0.2574074074074074),np.float64(-0.09166666666666666),1,0,0,1.8342874,target',44,0,44,0,88.4796047,,5,88.4695652,88.4796047,88.4796047,0.0150871,90.3039653,np.float64(-0.2574074074074074),np.float64(-0.09166666666666666),1,0,0,1.8342874,target',4,1,2025-09-30_15h54.49.194,Exp Visual Search,,2025.1.1,60.1169997,2025-09-30 15h55.00.821456 +0530
46,0,46,np.float64(-0.2833333333333333),np.float64(-0.21944444444444444),1,0,0,1.4483521,target',46,0,46,0,91.9851613,,5,91.9721031,91.9851613,91.9851613,0.0175271,93.4205602,np.float64(-0.2833333333333333),np.float64(-0.21944444444444444),1,0,0,1.4483521,target',4,1,2025-09-30_15h54.49.194,Exp Visual Search,,2025.1.1,60.1169997,2025-09-30 15h55.00.821456 +0530
47,0,47,np.float64(-0.5083333333333333),np.float64(-0.22962962962962963),1,0,0,1.3994205,target',47,0,47,0,93.4480398,,5,93.4379028,93.4480398,93.4480398,0.0171118,94.8374301,np.float64(-0.5083333333333333),np.float64(-0.22962962962962963),1,0,0,1.3994205,target',4,1,2025-09-30_15h54.49.194,Exp Visual Search,,2025.1.1,60.1169997,2025-09-30 15h55.00.821456 +0530
50,0,50,np.float64(0.03981481481481482),np.float64(0.44351851851851853),1,0,0,2.2669546,target',50,0,50,0,97.9324049,,5,97.9201274,97.9324049,97.9324049,0.0162642,100.1871999,np.float64(0.03981481481481482),np.float64(0.44351851851851853),1,0,0,2.2669546,target',4,1,2025-09-30_15h54.49.194,Exp Visual Search,,2025.1.1,60.1169997,2025-09-30 15h55.00.821456 +0530
52,0,52,np.float64(-0.030555555555555555),np.float64(0.07962962962962963),1,0,0,1.417035,target',52,0,52,0,101.964393,,5,101.9517852,101.964393,101.964393,0.0153201,103.36887,np.float64(-0.030555555555555555),np.float64(0.07962962962962963),1,0,0,1.417035,target',4,1,2025-09-30_15h54.49.194,Exp Visual Search,,2025.1.1,60.1169997,2025-09-30 15h55.00.821456 +0530
57,0,57,np.float64(0.03518518518518519),np.float64(0.37777777777777777),1,0,0,1.5790416,target',57,0,57,0,113.9023863,,5,113.8903589,113.9023863,113.9023863,0.0202249,115.4695061,np.float64(0.03518518518518519),np.float64(0.37777777777777777),1,0,0,1.5790416,target',4,1,2025-09-30_15h54.49.194,Exp Visual Search,,2025.1.1,60.1169997,2025-09-30 15h55.00.821456 +0530
59,0,59,np.float64(0.4527777777777778),np.float64(0.23333333333333334),1,0,0,1.8499102,target',59,0,59,0,118.7457919,,5,118.7365224,118.7457919,118.7457919,0.0173021,120.5866269,np.float64(0.4527777777777778),np.float64(0.23333333333333334),1,0,0,1.8499102,target',4,1,2025-09-30_15h54.49.194,Exp Visual Search,,2025.1.1,60.1169997,2025-09-30 15h55.00.821456 +0530
60,0,60,np.float64(-0.30462962962962964),np.float64(0.22870370370370371),1,0,0,1.4317046,target',60,0,60,0,120.6110685,,5,120.6028992,120.6110685,120.6110685,0.0159542,122.0347312,np.float64(-0.30462962962962964),np.float64(0.22870370370370371),1,0,0,1.4317046,target',4,1,2025-09-30_15h54.49.194,Exp Visual Search,,2025.1.1,60.1169997,2025-09-30 15h55.00.821456 +0530
62,0,62,np.float64(-0.018518518518518517),np.float64(0.2574074074074074),1,0,0,1.4056523,target',62,0,62,0,124.6722186,,5,124.6628802,124.6722186,124.6722186,0.011654,126.0686362,np.float64(-0.018518518518518517),np.float64(0.2574074074074074),1,0,0,1.4056523,target',4,1,2025-09-30_15h54.49.194,Exp Visual Search,,2025.1.1,60.1169997,2025-09-30 15h55.00.821456 +0530
63,0,63,np.float64(0.3731481481481482),np.float64(-0.07592592592592592),1,0,0,1.8333895,target',63,0,63,0,126.0946552,,5,126.0849061,126.0946552,126.0946552,0.0160514,127.9184154,np.float64(0.3731481481481482),np.float64(-0.07592592592592592),1,0,0,1.8333895,target',4,1,2025-09-30_15h54.49.194,Exp Visual Search,,2025.1.1,60.1169997,2025-09-30 15h55.00.821456 +0530
64,0,64,np.float64(0.39166666666666666),np.float64(0.3138888888888889),1,0,0,1.646594,target',64,0,64,0,127.9484516,,5,127.9400234,127.9484516,127.9484516,0.0213917,129.5867242,np.float64(0.39166666666666666),np.float64(0.3138888888888889),1,0,0,1.646594,target',4,1,2025-09-30_15h54.49.194,Exp Visual Search,,2025.1.1,60.1169997,2025-09-30 15h55.00.821456 +0530
67,0,67,np.float64(0.4759259259259259),np.float64(0.45555555555555555),1,0,0,1.7224104,target',67,0,67,0,135.3862156,,5,135.3786608,135.3862156,135.3862156,0.0111203,137.1011926,np.float64(0.4759259259259259),np.float64(0.45555555555555555),1,0,0,1.7224104,target',4,1,2025-09-30_15h54.49.194,Exp Visual Search,,2025.1.1,60.1169997,2025-09-30 15h55.00.821456 +0530
69,0,69,np.float64(-0.31666666666666665),np.float64(-0.07314814814814814),1,0,0,1.3159799,target',69,0,69,0,140.2606031,,5,140.2508794,140.2606031,140.2606031,0.0163096,141.5669598,np.float64(-0.31666666666666665),np.float64(-0.07314814814814814),1,0,0,1.3159799,target',4,1,2025-09-30_15h54.49.194,Exp Visual Search,,2025.1.1,60.1169997,2025-09-30 15h55.00.821456 +0530
70,0,70,np.float64(-0.40555555555555556),np.float64(0.2777777777777778),1,0,0,1.6187016,target',70,0,70,0,141.5919282,,5,141.5820984,141.5919282,141.5919282,0.0149336,143.2009109,np.float64(-0.40555555555555556),np.float64(0.2777777777777778),1,0,0,1.6187016,target',4,1,2025-09-30_15h54.49.194,Exp Visual Search,,2025.1.1,60.1169997,2025-09-30 15h55.00.821456 +0530
71,0,71,np.float64(-0.11666666666666667),np.float64(0.4166666666666667),1,0,0,1.3161338,target',71,0,71,0,143.2275116,,5,143.2173249,143.2275116,143.2275116,0.016187,144.5335744,np.float64(-0.11666666666666667),np.float64(0.4166666666666667),1,0,0,1.3161338,target',4,1,2025-09-30_15h54.49.194,Exp Visual Search,,2025.1.1,60.1169997,2025-09-30 15h55.00.821456 +0530
72,0,72,np.float64(-0.003703703703703704),np.float64(0.12777777777777777),1,0,0,1.5023422,target',72,0,72,0,144.5581836,,5,144.5482748,144.5581836,144.5581836,0.0144676,146.0507372,np.float64(-0.003703703703703704),np.float64(0.12777777777777777),1,0,0,1.5023422,target',4,1,2025-09-30_15h54.49.194,Exp Visual Search,,2025.1.1,60.1169997,2025-09-30 15h55.00.821456 +0530
74,0,74,np.float64(-0.33796296296296297),np.float64(0.40555555555555556),1,0,0,1.916074,target',74,0,74,0,147.9108658,,5,147.9011149,147.9108658,147.9108658,0.0173373,149.8173214,np.float64(-0.33796296296296297),np.float64(0.40555555555555556),1,0,0,1.916074,target',4,1,2025-09-30_15h54.49.194,Exp Visual Search,,2025.1.1,60.1169997,2025-09-30 15h55.00.821456 +0530
76,0,76,np.float64(0.14351851851851852),np.float64(-0.125),1,0,0,1.2039242,target',76,0,76,0,154.0543249,,5,154.0461755,154.0543249,154.0543249,0.0126184,155.2502155,np.float64(0.14351851851851852),np.float64(-0.125),1,0,0,1.2039242,target',4,1,2025-09-30_15h54.49.194,Exp Visual Search,,2025.1.1,60.1169997,2025-09-30 15h55.00.821456 +0530
78,0,78,np.float64(-0.3351851851851852),np.float64(-0.012037037037037037),1,0,0,1.5488195,target',78,0,78,0,157.028382,,5,157.0177426,157.028382,157.028382,0.0175389,158.5667381,np.float64(-0.3351851851851852),np.float64(-0.012037037037037037),1,0,0,1.5488195,target',4,1,2025-09-30_15h54.49.194,Exp Visual Search,,2025.1.1,60.1169997,2025-09-30 15h55.00.821456 +0530
81,0,81,np.float64(-0.06944444444444445),np.float64(0.4583333333333333),1,0,0,1.786224,target',81,0,81,0,162.4732535,,5,162.463321,162.4732535,162.4732535,0.0132987,164.2496566,np.float64(-0.06944444444444445),np.float64(0.4583333333333333),1,0,0,1.786224,target',4,1,2025-09-30_15h54.49.194,Exp Visual Search,,2025.1.1,60.1169997,2025-09-30 15h55.00.821456 +0530
84,0,84,np.float64(-0.3611111111111111),np.float64(0.25),1,0,0,1.850255,target',84,0,84,0,170.1263561,,5,170.1151528,170.1263561,170.1263561,0.0153188,171.9655148,np.float64(-0.3611111111111111),np.float64(0.25),1,0,0,1.850255,target',4,1,2025-09-30_15h54.49.194,Exp Visual Search,,2025.1.1,60.1169997,2025-09-30 15h55.00.821456 +0530
87,0,87,np.float64(0.2361111111111111),np.float64(-0.06388888888888888),1,0,0,1.7879094,target',87,0,87,0,174.470233,,5,174.4605789,174.470233,174.470233,0.0121503,176.2485944,np.float64(0.2361111111111111),np.float64(-0.06388888888888888),1,0,0,1.7879094,target',4,1,2025-09-30_15h54.49.194,Exp Visual Search,,2025.1.1,60.1169997,2025-09-30 15h55.00.821456 +0530
89,0,89,np.float64(-0.2722222222222222),np.float64(0.44537037037037036),1,0,0,1.4569812,target',89,0,89,0,178.383662,,5,178.3751137,178.383662,178.383662,0.0103508,179.8322138,np.float64(-0.2722222222222222),np.float64(0.44537037037037036),1,0,0,1.4569812,target',4,1,2025-09-30_15h54.49.194,Exp Visual Search,,2025.1.1,60.1169997,2025-09-30 15h55.00.821456 +0530
90,0,90,np.float64(0.07777777777777778),np.float64(-0.33611111111111114),1,0,0,2.2160442,target',90,0,90,0,179.855769,,5,179.8482971,179.855769,179.855769,0.0158544,182.0644543,np.float64(0.07777777777777778),np.float64(-0.33611111111111114),1,0,0,2.2160442,target',4,1,2025-09-30_15h54.49.194,Exp Visual Search,,2025.1.1,60.1169997,2025-09-30 15h55.00.821456 +0530
97,0,97,np.float64(-0.225),np.float64(0.3435185185185185),1,0,0,1.3344288,target',97,0,97,0,196.0698857,,5,196.0624567,196.0698857,196.0698857,0.0148111,197.3969594,np.float64(-0.225),np.float64(0.3435185185185185),1,0,0,1.3344288,target',4,1,2025-09-30_15h54.49.194,Exp Visual Search,,2025.1.1,60.1169997,2025-09-30 15h55.00.821456 +0530
98,0,98,np.float64(0.11851851851851852),np.float64(0.31666666666666665),1,0,0,1.7384678,target',98,0,98,0,197.4160668,,5,197.4087434,197.4160668,197.4160668,0.0116424,199.1473262,np.float64(0.11851851851851852),np.float64(0.31666666666666665),1,0,0,1.7384678,target',4,1,2025-09-30_15h54.49.194,Exp Visual Search,,2025.1.1,60.1169997,2025-09-30 15h55.00.821456 +0530
100,0,100,np.float64(0.20185185185185187),np.float64(0.43425925925925923),1,0,0,1.3842152,target',100,0,100,0,200.5379964,,5,200.5297139,200.5379964,200.5379964,0.0156402,201.9140429,np.float64(0.20185185185185187),np.float64(0.43425925925925923),1,0,0,1.3842152,target',4,1,2025-09-30_15h54.49.194,Exp Visual Search,,2025.1.1,60.1169997,2025-09-30 15h55.00.821456 +0530
102,0,102,np.float64(0.15833333333333333),np.float64(0.2722222222222222),1,0,0,1.3666186,target',102,0,102,0,203.6916644,,5,203.6806341,203.6916644,203.6916644,0.0177046,205.0473558,np.float64(0.15833333333333333),np.float64(0.2722222222222222),1,0,0,1.3666186,target',4,1,2025-09-30_15h54.49.194,Exp Visual Search,,2025.1.1,60.1169997,2025-09-30 15h55.00.821456 +0530
104,0,104,np.float64(0.05925925925925926),np.float64(0.34629629629629627),1,0,0,1.5177081,target',104,0,104,0,208.3694149,,5,208.3622625,208.3694149,208.3694149,0.0149377,209.8801043,np.float64(0.05925925925925926),np.float64(0.34629629629629627),1,0,0,1.5177081,target',4,1,2025-09-30_15h54.49.194,Exp Visual Search,,2025.1.1,60.1169997,2025-09-30 15h55.00.821456 +0530
106,0,106,np.float64(0.11944444444444445),np.float64(0.4888888888888889),1,0,0,1.5536126,target',106,0,106,0,212.0361589,,5,212.026494,212.0361589,212.0361589,0.0136157,213.5802169,np.float64(0.11944444444444445),np.float64(0.4888888888888889),1,0,0,1.5536126,target',4,1,2025-09-30_15h54.49.194,Exp Visual Search,,2025.1.1,60.1169997,2025-09-30 15h55.00.821456 +0530
108,0,108,np.float64(0.29907407407407405),np.float64(0.11203703703703703),1,0,0,2.2793408,target',108,0,108,0,216.2602703,,5,216.2503643,216.2602703,216.2602703,0.0200805,218.5298072,np.float64(0.29907407407407405),np.float64(0.11203703703703703),1,0,0,2.2793408,target',4,1,2025-09-30_15h54.49.194,Exp Visual Search,,2025.1.1,60.1169997,2025-09-30 15h55.00.821456 +0530
114,0,114,np.float64(-0.2898148148148148),np.float64(-0.4722222222222222),1,0,0,1.5347616,target',114,0,114,0,228.8871422,,5,228.8772422,228.8871422,228.8871422,0.0147721,230.4121231,np.float64(-0.2898148148148148),np.float64(-0.4722222222222222),1,0,0,1.5347616,target',4,1,2025-09-30_15h54.49.194,Exp Visual Search,,2025.1.1,60.1169997,2025-09-30 15h55.00.821456 +0530
115,0,115,np.float64(-0.25),np.float64(-0.06111111111111111),1,0,0,1.7334255,target',115,0,115,0,230.4383852,,5,230.4286051,230.4383852,230.4383852,0.0162531,232.1621399,np.float64(-0.25),np.float64(-0.06111111111111111),1,0,0,1.7334255,target',4,1,2025-09-30_15h54.49.194,Exp Visual Search,,2025.1.1,60.1169997,2025-09-30 15h55.00.821456 +0530
119,0,119,np.float64(0.08888888888888889),np.float64(0.05740740740740741),1,0,0,1.9195522,target',119,0,119,0,242.4822217,,5,242.4739345,242.4822217,242.4822217,0.0126873,244.3935842,np.float64(0.08888888888888889),np.float64(0.05740740740740741),1,0,0,1.9195522,target',4,1,2025-09-30_15h54.49.194,Exp Visual Search,,2025.1.1,60.1169997,2025-09-30 15h55.00.821456 +0530
123,0,123,np.float64(0.2638888888888889),np.float64(0.2),1,0,0,2.3140967,target',123,0,123,0,254.3550328,,5,254.345779,254.3550328,254.3550328,0.0182608,256.6599694,np.float64(0.2638888888888889),np.float64(0.2),1,0,0,2.3140967,target',4,1,2025-09-30_15h54.49.194,Exp Visual Search,,2025.1.1,60.1169997,2025-09-30 15h55.00.821456 +0530
129,0,129,np.float64(0.1527777777777778),np.float64(-0.05092592592592592),1,0,0,1.4178913,target',129,0,129,0,264.2373447,,5,264.2261143,264.2373447,264.2373447,0.0150476,265.6441243,np.float64(0.1527777777777778),np.float64(-0.05092592592592592),1,0,0,1.4178913,target',4,1,2025-09-30_15h54.49.194,Exp Visual Search,,2025.1.1,60.1169997,2025-09-30 15h55.00.821456 +0530
131,0,131,np.float64(-0.4638888888888889),np.float64(0.40370370370370373),1,0,0,2.4539752,target',131,0,131,0,267.8137735,,5,267.8048541,267.8137735,267.8137735,0.0117425,270.2588895,np.float64(-0.4638888888888889),np.float64(0.40370370370370373),1,0,0,2.4539752,target',4,1,2025-09-30_15h54.49.194,Exp Visual Search,,2025.1.1,60.1169997,2025-09-30 15h55.00.821456 +0530
132,0,132,np.float64(0.15462962962962962),np.float64(-0.04814814814814815),1,0,0,2.1233985,target',132,0,132,0,270.2773027,,5,270.2689067,270.2773027,270.2773027,0.0099231,272.3923923,np.float64(0.15462962962962962),np.float64(-0.04814814814814815),1,0,0,2.1233985,target',4,1,2025-09-30_15h54.49.194,Exp Visual Search,,2025.1.1,60.1169997,2025-09-30 15h55.00.821456 +0530
133,0,133,np.float64(-0.42314814814814816),np.float64(0.262037037037037),1,0,0,1.9220813,target',133,0,133,0,272.4126431,,5,272.4024759,272.4126431,272.4126431,0.0099627,274.3246215,np.float64(-0.42314814814814816),np.float64(0.262037037037037),1,0,0,1.9220813,target',4,1,2025-09-30_15h54.49.194,Exp Visual Search,,2025.1.1,60.1169997,2025-09-30 15h55.00.821456 +0530
136,0,136,np.float64(-0.06574074074074074),np.float64(-0.040740740740740744),1,0,0,1.931987,target',136,0,136,0,278.0715394,,5,278.0607209,278.0715394,278.0715394,0.0180415,279.9928301,np.float64(-0.06574074074074074),np.float64(-0.040740740740740744),1,0,0,1.931987,target',4,1,2025-09-30_15h54.49.194,Exp Visual Search,,2025.1.1,60.1169997,2025-09-30 15h55.00.821456 +0530
137,0,137,np.float64(0.16296296296296298),np.float64(-0.2861111111111111),1,0,0,1.848814,target',137,0,137,0,280.0171823,,5,280.0097401,280.0171823,280.0171823,0.0166821,281.8586651,np.float64(0.16296296296296298),np.float64(-0.2861111111111111),1,0,0,1.848814,target',4,1,2025-09-30_15h54.49.194,Exp Visual Search,,2025.1.1,60.1169997,2025-09-30 15h55.00.821456 +0530
138,0,138,np.float64(-0.26666666666666666),np.float64(-0.058333333333333334),1,0,0,1.3503259,target',138,0,138,0,281.8852411,,5,281.8752313,281.8852411,281.8852411,0.0163419,283.2256731,np.float64(-0.26666666666666666),np.float64(-0.058333333333333334),1,0,0,1.3503259,target',4,1,2025-09-30_15h54.49.194,Exp Visual Search,,2025.1.1,60.1169997,2025-09-30 15h55.00.821456 +0530
139,0,139,np.float64(0.046296296296296294),np.float64(0.2759259259259259),1,0,0,2.1284984,target',139,0,139,0,283.256139,,5,283.2463532,283.256139,283.256139,0.0204657,285.3749537,np.float64(0.046296296296296294),np.float64(0.2759259259259259),1,0,0,2.1284984,target',4,1,2025-09-30_15h54.49.194,Exp Visual Search,,2025.1.1,60.1169997,2025-09-30 15h55.00.821456 +0530
143,0,143,np.float64(-0.4981481481481482),np.float64(-0.262037037037037),1,0,0,1.4831942,target',143,0,143,0,292.3019053,,5,292.2919812,292.3019053,292.3019053,0.0159763,293.7752855,np.float64(-0.4981481481481482),np.float64(-0.262037037037037),1,0,0,1.4831942,target',4,1,2025-09-30_15h54.49.194,Exp Visual Search,,2025.1.1,60.1169997,2025-09-30 15h55.00.821456 +0530
144,0,144,np.float64(-0.4759259259259259),np.float64(0.2796296296296296),1,0,0,2.0665741,target',144,0,144,0,293.7982075,,5,293.7905687,293.7982075,293.7982075,0.0150451,295.8572079,np.float64(-0.4759259259259259),np.float64(0.2796296296296296),1,0,0,2.0665741,target',4,1,2025-09-30_15h54.49.194,Exp Visual Search,,2025.1.1,60.1169997,2025-09-30 15h55.00.821456 +0530
145,0,145,np.float64(-0.3138888888888889),np.float64(-0.09907407407407408),1,0,0,1.67566,target',145,0,145,0,295.8911907,,5,295.8821444,295.8911907,295.8911907,0.0248158,297.5579216,np.float64(-0.3138888888888889),np.float64(-0.09907407407407408),1,0,0,1.67566,target',4,1,2025-09-30_15h54.49.194,Exp Visual Search,,2025.1.1,60.1169997,2025-09-30 15h55.00.821456 +0530
147,0,147,np.float64(0.2111111111111111),np.float64(-0.3888888888888889),1,0,0,2.8322082,target',147,0,147,0,300.6994652,,5,300.6923061,300.6994652,300.6994652,0.0168609,303.524627,np.float64(0.2111111111111111),np.float64(-0.3888888888888889),1,0,0,2.8322082,target',4,1,2025-09-30_15h54.49.194,Exp Visual Search,,2025.1.1,60.1169997,2025-09-30 15h55.00.821456 +0530
151,0,151,np.float64(-0.4546296296296296),np.float64(-0.2953703703703704),1,0,0,1.83411,target',151,0,151,0,312.4144993,,5,312.405852,312.4144993,312.4144993,0.014607,314.2400701,np.float64(-0.4546296296296296),np.float64(-0.2953703703703704),1,0,0,1.83411,target',4,1,2025-09-30_15h54.49.194,Exp Visual Search,,2025.1.1,60.1169997,2025-09-30 15h55.00.821456 +0530
155,0,155,np.float64(0.12314814814814815),np.float64(0.3787037037037037),1,0,0,2.9816877,target',155,0,155,0,325.9822969,,5,325.9744244,325.9822969,325.9822969,0.017428,328.9562276,np.float64(0.12314814814814815),np.float64(0.3787037037037037),1,0,0,2.9816877,target',4,1,2025-09-30_15h54.49.194,Exp Visual Search,,2025.1.1,60.1169997,2025-09-30 15h55.00.821456 +0530
156,0,156,np.float64(0.06759259259259259),np.float64(-0.19444444444444445),1,0,0,1.6859608,target',156,0,156,0,328.980971,,5,328.9698717,328.980971,328.980971,0.0131992,330.6559457,np.float64(0.06759259259259259),np.float64(-0.19444444444444445),1,0,0,1.6859608,target',4,1,2025-09-30_15h54.49.194,Exp Visual Search,,2025.1.1,60.1169997,2025-09-30 15h55.00.821456 +0530
157,0,157,np.float64(0.3388888888888889),np.float64(-0.062037037037037036),1,0,0,1.2668154,target',157,0,157,0,330.6828407,,5,330.6724714,330.6828407,330.6828407,0.0162976,331.939403,np.float64(0.3388888888888889),np.float64(-0.062037037037037036),1,0,0,1.2668154,target',4,1,2025-09-30_15h54.49.194,Exp Visual Search,,2025.1.1,60.1169997,2025-09-30 15h55.00.821456 +0530
158,0,158,np.float64(0.10833333333333334),np.float64(0.11851851851851852),1,0,0,2.613832,target',158,0,158,0,331.9711234,,5,331.9587209,331.9711234,331.9711234,0.0191148,334.5726537,np.float64(0.10833333333333334),np.float64(0.11851851851851852),1,0,0,2.613832,target',4,1,2025-09-30_15h54.49.194,Exp Visual Search,,2025.1.1,60.1169997,2025-09-30 15h55.00.821456 +0530
159,0,159,np.float64(-0.12407407407407407),np.float64(0.2796296296296296),1,0,0,1.6480022,target',159,0,159,0,334.6038505,,5,334.5910254,334.6038505,334.6038505,0.018162,336.2391339,np.float64(-0.12407407407407407),np.float64(0.2796296296296296),1,0,0,1.6480022,target',4,1,2025-09-30_15h54.49.194,Exp Visual Search,,2025.1.1,60.1169997,2025-09-30 15h55.00.821456 +0530
162,0,162,np.float64(0.03148148148148148),np.float64(0.44907407407407407),1,0,0,2.0035176,target',162,0,162,0,339.9955446,,5,339.98647,339.9955446,339.9955446,0.013788,341.9901573,np.float64(0.03148148148148148),np.float64(0.44907407407407407),1,0,0,2.0035176,target',4,1,2025-09-30_15h54.49.194,Exp Visual Search,,2025.1.1,60.1169997,2025-09-30 15h55.00.821456 +0530
167,0,167,np.float64(-0.36944444444444446),np.float64(-0.3),1,0,0,1.8845872,target',167,0,167,0,349.5305181,,5,349.5196614,349.5305181,349.5305181,0.0148351,351.404362,np.float64(-0.36944444444444446),np.float64(-0.3),1,0,0,1.8845872,target',4,1,2025-09-30_15h54.49.194,Exp Visual Search,,2025.1.1,60.1169997,2025-09-30 15h55.00.821456 +0530
169,0,169,np.float64(0.42962962962962964),np.float64(0.024074074074074074),1,0,0,1.9993536,target',169,0,169,0,352.6797107,,5,352.671631,352.6797107,352.6797107,0.0167768,354.671095,np.float64(0.42962962962962964),np.float64(0.024074074074074074),1,0,0,1.9993536,target',4,1,2025-09-30_15h54.49.194,Exp Visual Search,,2025.1.1,60.1169997,2025-09-30 15h55.00.821456 +0530
170,0,170,np.float64(0.2490740740740741),np.float64(-0.2537037037037037),1,0,0,1.3925555,target',170,0,170,0,354.7089974,,5,354.6951421,354.7089974,354.7089974,0.0238561,356.0877906,np.float64(0.2490740740740741),np.float64(-0.2537037037037037),1,0,0,1.3925555,target',4,1,2025-09-30_15h54.49.194,Exp Visual Search,,2025.1.1,60.1169997,2025-09-30 15h55.00.821456 +0530
171,0,171,np.float64(-0.3111111111111111),np.float64(-0.03518518518518519),1,0,0,1.4781321,target',171,0,171,0,356.1231476,,5,356.1096212,356.1231476,356.1231476,0.0216166,357.5878468,np.float64(-0.3111111111111111),np.float64(-0.03518518518518519),1,0,0,1.4781321,target',4,1,2025-09-30_15h54.49.194,Exp Visual Search,,2025.1.1,60.1169997,2025-09-30 15h55.00.821456 +0530
172,0,172,np.float64(0.07037037037037037),np.float64(-0.4861111111111111),1,0,0,1.661126,target',172,0,172,0,357.623842,,5,357.609657,357.623842,357.623842,0.0216054,359.2708725,np.float64(0.07037037037037037),np.float64(-0.4861111111111111),1,0,0,1.661126,target',4,1,2025-09-30_15h54.49.194,Exp Visual Search,,2025.1.1,60.1169997,2025-09-30 15h55.00.821456 +0530
173,0,173,np.float64(0.325),np.float64(-0.16944444444444445),1,0,0,1.7502537,target',173,0,173,0,359.3013483,,5,359.2897486,359.3013483,359.3013483,0.0186815,361.0401073,np.float64(0.325),np.float64(-0.16944444444444445),1,0,0,1.7502537,target',4,1,2025-09-30_15h54.49.194,Exp Visual Search,,2025.1.1,60.1169997,2025-09-30 15h55.00.821456 +0530
175,0,175,np.float64(-0.23703703703703705),np.float64(-0.0712962962962963),1,0,0,1.6183983,target',175,0,175,0,362.7964384,,5,362.7855628,362.7964384,362.7964384,0.0148606,364.4040693,np.float64(-0.23703703703703705),np.float64(-0.0712962962962963),1,0,0,1.6183983,target',4,1,2025-09-30_15h54.49.194,Exp Visual Search,,2025.1.1,60.1169997,2025-09-30 15h55.00.821456 +0530
176,0,176,np.float64(-0.48333333333333334),np.float64(0.25925925925925924),1,0,0,1.9692118,target',176,0,176,0,364.429494,,5,364.4177118,364.429494,364.429494,0.0134121,366.3870376,np.float64(-0.48333333333333334),np.float64(0.25925925925925924),1,0,0,1.9692118,target',4,1,2025-09-30_15h54.49.194,Exp Visual Search,,2025.1.1,60.1169997,2025-09-30 15h55.00.821456 +0530
177,0,177,np.float64(-0.2601851851851852),np.float64(0.3824074074074074),1,0,0,1.9662769,target',177,0,177,0,366.4132763,,5,366.4034023,366.4132763,366.4132763,0.0161598,368.3698311,np.float64(-0.2601851851851852),np.float64(0.3824074074074074),1,0,0,1.9662769,target',4,1,2025-09-30_15h54.49.194,Exp Visual Search,,2025.1.1,60.1169997,2025-09-30 15h55.00.821456 +0530
180,0,180,np.float64(0.08148148148148149),np.float64(0.24814814814814815),1,0,0,1.4524753,target',180,0,180,0,371.6768164,,5,371.667978,371.6768164,371.6768164,0.013134,373.1205704,np.float64(0.08148148148148149),np.float64(0.24814814814814815),1,0,0,1.4524753,target',4,1,2025-09-30_15h54.49.194,Exp Visual Search,,2025.1.1,60.1169997,2025-09-30 15h55.00.821456 +0530
183,0,183,np.float64(-0.19166666666666668),np.float64(0.1287037037037037),1,0,0,1.4840768,target',183,0,183,0,376.2290253,,5,376.2194645,376.2290253,376.2290253,0.0158354,377.703653,np.float64(-0.19166666666666668),np.float64(0.1287037037037037),1,0,0,1.4840768,target',4,1,2025-09-30_15h54.49.194,Exp Visual Search,,2025.1.1,60.1169997,2025-09-30 15h55.00.821456 +0530
184,0,184,np.float64(-0.44351851851851853),np.float64(-0.38055555555555554),1,0,0,1.991907,target',184,0,184,0,377.7391181,,5,377.727942,377.7391181,377.7391181,0.0240863,379.7199565,np.float64(-0.44351851851851853),np.float64(-0.38055555555555554),1,0,0,1.991907,target',4,1,2025-09-30_15h54.49.194,Exp Visual Search,,2025.1.1,60.1169997,2025-09-30 15h55.00.821456 +0530
186,0,186,np.float64(0.012962962962962963),np.float64(0.28055555555555556),1,0,0,1.2686718,target',186,0,186,0,382.3442874,,5,382.3342943,382.3442874,382.3442874,0.015075,383.6030877,np.float64(0.012962962962962963),np.float64(0.28055555555555556),1,0,0,1.2686718,target',4,1,2025-09-30_15h54.49.194,Exp Visual Search,,2025.1.1,60.1169997,2025-09-30 15h55.00.821456 +0530
188,0,188,np.float64(-0.2351851851851852),np.float64(0.08148148148148149),1,0,0,1.7196778,target',188,0,188,0,386.3594926,,5,386.3497101,386.3594926,386.3594926,0.0141841,388.0695007,np.float64(-0.2351851851851852),np.float64(0.08148148148148149),1,0,0,1.7196778,target',4,1,2025-09-30_15h54.49.194,Exp Visual Search,,2025.1.1,60.1169997,2025-09-30 15h55.00.821456 +0530
189,0,189,np.float64(0.37962962962962965),np.float64(0.2972222222222222),1,0,0,1.5496083,target',189,0,189,0,388.0979178,,5,388.0863343,388.0979178,388.0979178,0.0166199,389.6360534,np.float64(0.37962962962962965),np.float64(0.2972222222222222),1,0,0,1.5496083,target',4,1,2025-09-30_15h54.49.194,Exp Visual Search,,2025.1.1,60.1169997,2025-09-30 15h55.00.821456 +0530
191,0,191,np.float64(-0.5037037037037037),np.float64(0.06296296296296296),1,0,0,2.1954856,target',191,0,191,0,391.4857549,,5,391.4730321,391.4857549,391.4857549,0.020432,393.6686228,np.float64(-0.5037037037037037),np.float64(0.06296296296296296),1,0,0,2.1954856,target',4,1,2025-09-30_15h54.49.194,Exp Visual Search,,2025.1.1,60.1169997,2025-09-30 15h55.00.821456 +0530
192,0,192,np.float64(0.27685185185185185),np.float64(-0.0787037037037037),1,0,0,1.9270635,target',192,0,192,0,393.7061548,,5,393.6910948,393.7061548,393.7061548,0.0222664,395.6182496,np.float64(0.27685185185185185),np.float64(-0.0787037037037037),1,0,0,1.9270635,target',4,1,2025-09-30_15h54.49.194,Exp Visual Search,,2025.1.1,60.1169997,2025-09-30 15h55.00.821456 +0530
193,0,193,np.float64(0.06481481481481481),np.float64(0.3907407407407407),1,0,0,1.899649,target',193,0,193,0,395.645267,,5,395.6350152,395.645267,395.645267,0.0165745,397.5347689,np.float64(0.06481481481481481),np.float64(0.3907407407407407),1,0,0,1.899649,target',4,1,2025-09-30_15h54.49.194,Exp Visual Search,,2025.1.1,60.1169997,2025-09-30 15h55.00.821456 +0530
194,0,194,np.float64(0.22870370370370371),np.float64(-0.08055555555555556),1,0,0,1.8105724,target',194,0,194,0,397.5681472,,5,397.5574899,397.5681472,397.5681472,0.0225188,399.3681698,np.float64(0.22870370370370371),np.float64(-0.08055555555555556),1,0,0,1.8105724,target',4,1,2025-09-30_15h54.49.194,Exp Visual Search,,2025.1.1,60.1169997,2025-09-30 15h55.00.821456 +0530
0,0,0,np.float64(0.3074074074074074),np.float64(-0.058333333333333334),1,0,0,1.8521268,target',0,0,0,0,0.0617161,,10,0.036966,0.0617161,0.0617161,0.037017,1.8892102,np.float64(0.3074074074074074),np.float64(-0.058333333333333334),1,0,0,1.8521268,target',4,1,2025-09-30_15h54.49.194,Exp Visual Search,,2025.1.1,60.1169997,2025-09-30 15h55.00.821456 +0530
4,0,4,np.float64(0.26296296296296295),np.float64(0.16111111111111112),1,0,0,1.6408766,target',4,0,4,0,8.6117127,,10,8.6013285,8.6117127,8.6117127,0.0254738,10.2423179,np.float64(0.26296296296296295),np.float64(0.16111111111111112),1,0,0,1.6408766,target',4,1,2025-09-30_15h54.49.194,Exp Visual Search,,2025.1.1,60.1169997,2025-09-30 15h55.00.821456 +0530
6,0,6,np.float64(-0.4703703703703704),np.float64(-0.3962962962962963),1,0,0,2.0927442,target',6,0,6,0,11.6263221,,10,11.6157108,11.6263221,11.6263221,0.0235797,13.7085714,np.float64(-0.4703703703703704),np.float64(-0.3962962962962963),1,0,0,2.0927442,target',4,1,2025-09-30_15h54.49.194,Exp Visual Search,,2025.1.1,60.1169997,2025-09-30 15h55.00.821456 +0530
8,0,8,np.float64(-0.022222222222222223),np.float64(-0.03148148148148148),1,0,0,2.8030376,target',8,0,8,0,15.271436,,10,15.2548665,15.271436,15.271436,0.0461418,18.0580006,np.float64(-0.022222222222222223),np.float64(-0.03148148148148148),1,0,0,2.8030376,target',4,1,2025-09-30_15h54.49.194,Exp Visual Search,,2025.1.1,60.1169997,2025-09-30 15h55.00.821456 +0530
10,0,10,np.float64(-0.004629629629629629),np.float64(-0.29814814814814816),1,0,0,1.4916893,target',10,0,10,0,19.4439568,,10,19.4325634,19.4439568,19.4439568,0.0409673,20.9243568,np.float64(-0.004629629629629629),np.float64(-0.29814814814814816),1,0,0,1.4916893,target',4,1,2025-09-30_15h54.49.194,Exp Visual Search,,2025.1.1,60.1169997,2025-09-30 15h55.00.821456 +0530
11,0,11,np.float64(0.4287037037037037),np.float64(0.4185185185185185),1,0,0,2.1415616,target',11,0,11,0,20.959927,,10,20.9500228,20.959927,20.959927,0.0253952,23.0917001,np.float64(0.4287037037037037),np.float64(0.4185185185185185),1,0,0,2.1415616,target',4,1,2025-09-30_15h54.49.194,Exp Visual Search,,2025.1.1,60.1169997,2025-09-30 15h55.00.821456 +0530
12,0,12,np.float64(0.06111111111111111),np.float64(-0.17037037037037037),1,0,0,2.164203,target',12,0,12,0,23.1397976,,10,23.1297067,23.1397976,23.1397976,0.0376901,25.2940295,np.float64(0.06111111111111111),np.float64(-0.17037037037037037),1,0,0,2.164203,target',4,1,2025-09-30_15h54.49.194,Exp Visual Search,,2025.1.1,60.1169997,2025-09-30 15h55.00.821456 +0530
13,0,13,np.float64(0.3638888888888889),np.float64(-0.3731481481481482),1,0,0,1.6709949,target',13,0,13,0,25.3326441,,10,25.3206447,25.3326441,25.3326441,0.026349,26.9917482,np.float64(0.3638888888888889),np.float64(-0.3731481481481482),1,0,0,1.6709949,target',4,1,2025-09-30_15h54.49.194,Exp Visual Search,,2025.1.1,60.1169997,2025-09-30 15h55.00.821456 +0530
14,0,14,np.float64(0.49722222222222223),np.float64(-0.000925925925925926),1,0,0,1.8257383,target',14,0,14,0,27.0255664,,10,27.0155232,27.0255664,27.0255664,0.0235059,28.8413776,np.float64(0.49722222222222223),np.float64(-0.000925925925925926),1,0,0,1.8257383,target',4,1,2025-09-30_15h54.49.194,Exp Visual Search,,2025.1.1,60.1169997,2025-09-30 15h55.00.821456 +0530
16,0,16,np.float64(0.1712962962962963),np.float64(0.47314814814814815),1,0,0,3.6239259,target',16,0,16,0,30.6487257,,10,30.6334383,30.6487257,30.6487257,0.0259244,34.2574765,np.float64(0.1712962962962963),np.float64(0.47314814814814815),1,0,0,3.6239259,target',4,1,2025-09-30_15h54.49.194,Exp Visual Search,,2025.1.1,60.1169997,2025-09-30 15h55.00.821456 +0530
20,0,20,np.float64(0.18888888888888888),np.float64(-0.009259259259259259),1,0,0,1.7248165,target',20,0,20,0,41.1128276,,10,41.0987304,41.1128276,41.1128276,0.0246738,42.8236645,np.float64(0.18888888888888888),np.float64(-0.009259259259259259),1,0,0,1.7248165,target',4,1,2025-09-30_15h54.49.194,Exp Visual Search,,2025.1.1,60.1169997,2025-09-30 15h55.00.821456 +0530
24,0,24,np.float64(0.027777777777777776),np.float64(-0.07777777777777778),1,0,0,1.6694202,target',24,0,24,0,46.9861321,,10,46.9709789,46.9861321,46.9861321,0.030155,48.6405164,np.float64(0.027777777777777776),np.float64(-0.07777777777777778),1,0,0,1.6694202,target',4,1,2025-09-30_15h54.49.194,Exp Visual Search,,2025.1.1,60.1169997,2025-09-30 15h55.00.821456 +0530
26,0,26,np.float64(0.08425925925925926),np.float64(-0.11296296296296296),1,0,0,1.5087387,target',26,0,26,0,50.3635713,,10,50.3476237,50.3635713,50.3635713,0.0238259,51.8564774,np.float64(0.08425925925925926),np.float64(-0.11296296296296296),1,0,0,1.5087387,target',4,1,2025-09-30_15h54.49.194,Exp Visual Search,,2025.1.1,60.1169997,2025-09-30 15h55.00.821456 +0530
28,0,28,np.float64(0.04351851851851852),np.float64(0.287962962962963),1,0,0,1.9078576,target',28,0,28,0,53.5448154,,10,53.5308131,53.5448154,53.5448154,0.0242937,55.4387446,np.float64(0.04351851851851852),np.float64(0.287962962962963),1,0,0,1.9078576,target',4,1,2025-09-30_15h54.49.194,Exp Visual Search,,2025.1.1,60.1169997,2025-09-30 15h55.00.821456 +0530
30,0,30,np.float64(-0.45185185185185184),np.float64(0.225),1,0,0,2.0750937,target',30,0,30,0,56.9298547,,10,56.9143124,56.9298547,56.9298547,0.0240494,58.9895149,np.float64(-0.45185185185185184),np.float64(0.225),1,0,0,2.0750937,target',4,1,2025-09-30_15h54.49.194,Exp Visual Search,,2025.1.1,60.1169997,2025-09-30 15h55.00.821456 +0530
31,0,31,np.float64(-0.21666666666666667),np.float64(0.3296296296296296),1,0,0,1.2561398,target',31,0,31,0,59.0556258,,10,59.0326355,59.0556258,59.0556258,0.0428747,60.2889375,np.float64(-0.21666666666666667),np.float64(0.3296296296296296),1,0,0,1.2561398,target',4,1,2025-09-30_15h54.49.194,Exp Visual Search,,2025.1.1,60.1169997,2025-09-30 15h55.00.821456 +0530
32,0,32,np.float64(-0.2824074074074074),np.float64(-0.47129629629629627),1,0,0,5.3775692,target',32,0,32,0,60.3439064,,10,60.3281054,60.3439064,60.3439064,0.0388346,65.7058378,np.float64(-0.2824074074074074),np.float64(-0.47129629629629627),1,0,0,5.3775692,target',4,1,2025-09-30_15h54.49.194,Exp Visual Search,,2025.1.1,60.1169997,2025-09-30 15h55.00.821456 +0530
33,0,33,np.float64(-0.31851851851851853),np.float64(-0.2518518518518518),1,0,0,1.8198969,target',33,0,33,0,65.7704814,,10,65.7524768,65.7704814,65.7704814,0.0462437,67.5724625,np.float64(-0.31851851851851853),np.float64(-0.2518518518518518),1,0,0,1.8198969,target',4,1,2025-09-30_15h54.49.194,Exp Visual Search,,2025.1.1,60.1169997,2025-09-30 15h55.00.821456 +0530
34,0,34,np.float64(-0.12407407407407407),np.float64(0.06111111111111111),1,0,0,4.5746136,target',34,0,34,0,67.6110186,,10,67.597504,67.6110186,67.6110186,0.0247398,72.1722309,np.float64(-0.12407407407407407),np.float64(0.06111111111111111),1,0,0,4.5746136,target',4,1,2025-09-30_15h54.49.194,Exp Visual Search,,2025.1.1,60.1169997,2025-09-30 15h55.00.821456 +0530
35,0,35,np.float64(-0.053703703703703705),np.float64(-0.3388888888888889),1,0,0,1.8013515,target',35,0,35,0,72.2234251,,10,72.2035872,72.2234251,72.2234251,0.031061,74.005061,np.float64(-0.053703703703703705),np.float64(-0.3388888888888889),1,0,0,1.8013515,target',4,1,2025-09-30_15h54.49.194,Exp Visual Search,,2025.1.1,60.1169997,2025-09-30 15h55.00.821456 +0530
36,0,36,np.float64(-0.15925925925925927),np.float64(-0.26666666666666666),1,0,0,1.2578968,target',36,0,36,0,74.0459258,,10,74.0310953,74.0459258,74.0459258,0.0257643,75.2890878,np.float64(-0.15925925925925927),np.float64(-0.26666666666666666),1,0,0,1.2578968,target',4,1,2025-09-30_15h54.49.194,Exp Visual Search,,2025.1.1,60.1169997,2025-09-30 15h55.00.821456 +0530
37,0,37,np.float64(-0.10462962962962963),np.float64(0.09444444444444444),1,0,0,1.5765267,target',37,0,37,0,75.3292617,,10,75.31224,75.3292617,75.3292617,0.0229745,76.8888966,np.float64(-0.10462962962962963),np.float64(0.09444444444444444),1,0,0,1.5765267,target',4,1,2025-09-30_15h54.49.194,Exp Visual Search,,2025.1.1,60.1169997,2025-09-30 15h55.00.821456 +0530
40,0,40,np.float64(-0.11944444444444445),np.float64(0.18888888888888888),1,0,0,1.4883228,target',40,0,40,0,80.6988518,,10,80.6817646,80.6988518,80.6988518,0.0264883,82.1701951,np.float64(-0.11944444444444445),np.float64(0.18888888888888888),1,0,0,1.4883228,target',4,1,2025-09-30_15h54.49.194,Exp Visual Search,,2025.1.1,60.1169997,2025-09-30 15h55.00.821456 +0530
45,0,45,np.float64(0.1787037037037037),np.float64(-0.19074074074074074),1,0,0,1.6250316,target',45,0,45,0,90.3438393,,10,90.3291702,90.3438393,90.3438393,0.0249822,91.9543121,np.float64(0.1787037037037037),np.float64(-0.19074074074074074),1,0,0,1.6250316,target',4,1,2025-09-30_15h54.49.194,Exp Visual Search,,2025.1.1,60.1169997,2025-09-30 15h55.00.821456 +0530
48,0,48,np.float64(-0.030555555555555555),np.float64(-0.2972222222222222),1,0,0,1.5493937,target',48,0,48,0,94.8871459,,10,94.8705263,94.8871459,94.8871459,0.0328743,96.4200344,np.float64(-0.030555555555555555),np.float64(-0.2972222222222222),1,0,0,1.5493937,target',4,1,2025-09-30_15h54.49.194,Exp Visual Search,,2025.1.1,60.1169997,2025-09-30 15h55.00.821456 +0530
49,0,49,np.float64(-0.4546296296296296),np.float64(0.12962962962962962),1,0,0,1.4562359,target',49,0,49,0,96.465283,,10,96.447086,96.465283,96.465283,0.0267791,97.9034341,np.float64(-0.4546296296296296),np.float64(0.12962962962962962),1,0,0,1.4562359,target',4,1,2025-09-30_15h54.49.194,Exp Visual Search,,2025.1.1,60.1169997,2025-09-30 15h55.00.821456 +0530
51,0,51,np.float64(-0.13055555555555556),np.float64(0.43425925925925923),1,0,0,1.7240309,target',51,0,51,0,100.2276232,,10,100.2120492,100.2276232,100.2276232,0.0246256,101.9361949,np.float64(-0.13055555555555556),np.float64(0.43425925925925923),1,0,0,1.7240309,target',4,1,2025-09-30_15h54.49.194,Exp Visual Search,,2025.1.1,60.1169997,2025-09-30 15h55.00.821456 +0530
53,0,53,np.float64(-0.38981481481481484),np.float64(0.01574074074074074),1,0,0,3.4987328,target',53,0,53,0,103.4006388,,10,103.3870625,103.4006388,103.4006388,0.0180949,106.8859055,np.float64(-0.38981481481481484),np.float64(0.01574074074074074),1,0,0,3.4987328,target',4,1,2025-09-30_15h54.49.194,Exp Visual Search,,2025.1.1,60.1169997,2025-09-30 15h55.00.821456 +0530
54,0,54,np.float64(0.3685185185185185),np.float64(0.025),1,0,0,2.1037449,target',54,0,54,0,106.932921,,10,106.9159108,106.932921,106.932921,0.0297341,109.0197699,np.float64(0.3685185185185185),np.float64(0.025),1,0,0,2.1037449,target',4,1,2025-09-30_15h54.49.194,Exp Visual Search,,2025.1.1,60.1169997,2025-09-30 15h55.00.821456 +0530
55,0,55,np.float64(0.30462962962962964),np.float64(-0.30462962962962964),1,0,0,2.3550223,target',55,0,55,0,109.0622737,,10,109.0474719,109.0622737,109.0622737,0.027423,111.4026013,np.float64(0.30462962962962964),np.float64(-0.30462962962962964),1,0,0,2.3550223,target',4,1,2025-09-30_15h54.49.194,Exp Visual Search,,2025.1.1,60.1169997,2025-09-30 15h55.00.821456 +0530
56,0,56,np.float64(0.04259259259259259),np.float64(0.49907407407407406),1,0,0,2.445073,target',56,0,56,0,111.4389386,,10,111.4246849,111.4389386,111.4389386,0.0218386,113.869871,np.float64(0.04259259259259259),np.float64(0.49907407407407406),1,0,0,2.445073,target',4,1,2025-09-30_15h54.49.194,Exp Visual Search,,2025.1.1,60.1169997,2025-09-30 15h55.00.821456 +0530
58,0,58,np.float64(-0.058333333333333334),np.float64(-0.4462962962962963),1,0,0,3.2227498,target',58,0,58,0,115.511421,,10,115.4960874,115.511421,115.511421,0.0263483,118.7189477,np.float64(-0.058333333333333334),np.float64(-0.4462962962962963),1,0,0,3.2227498,target',4,1,2025-09-30_15h54.49.194,Exp Visual Search,,2025.1.1,60.1169997,2025-09-30 15h55.00.821456 +0530
61,0,61,np.float64(0.47962962962962963),np.float64(0.1361111111111111),1,0,0,2.5837705,target',61,0,61,0,122.0832869,,10,122.0671412,122.0832869,122.0832869,0.0321939,124.6509986,np.float64(0.47962962962962963),np.float64(0.1361111111111111),1,0,0,2.5837705,target',4,1,2025-09-30_15h54.49.194,Exp Visual Search,,2025.1.1,60.1169997,2025-09-30 15h55.00.821456 +0530
65,0,65,np.float64(-0.5),np.float64(-0.3861111111111111),1,0,0,2.0897908,target',65,0,65,0,129.642721,,10,129.6281943,129.642721,129.642721,0.041183,131.7180905,np.float64(-0.5),np.float64(-0.3861111111111111),1,0,0,2.0897908,target',4,1,2025-09-30_15h54.49.194,Exp Visual Search,,2025.1.1,60.1169997,2025-09-30 15h55.00.821456 +0530
66,0,66,np.float64(-0.49907407407407406),np.float64(0.27870370370370373),1,0,0,3.6080469,target',66,0,66,0,131.7762329,,10,131.759209,131.7762329,131.7762329,0.0408628,135.3673316,np.float64(-0.49907407407407406),np.float64(0.27870370370370373),1,0,0,3.6080469,target',4,1,2025-09-30_15h54.49.194,Exp Visual Search,,2025.1.1,60.1169997,2025-09-30 15h55.00.821456 +0530
68,0,68,np.float64(-0.4675925925925926),np.float64(-0.1259259259259259),1,0,0,3.1078872,target',68,0,68,0,137.14274,,10,137.1262441,137.14274,137.14274,0.0247966,140.2342473,np.float64(-0.4675925925925926),np.float64(-0.1259259259259259),1,0,0,3.1078872,target',4,1,2025-09-30_15h54.49.194,Exp Visual Search,,2025.1.1,60.1169997,2025-09-30 15h55.00.821456 +0530
73,0,73,np.float64(0.4527777777777778),np.float64(0.05925925925925926),1,0,0,1.8070085,target',73,0,73,0,146.0893307,,10,146.0762316,146.0893307,146.0893307,0.0252567,147.8834076,np.float64(0.4527777777777778),np.float64(0.05925925925925926),1,0,0,1.8070085,target',4,1,2025-09-30_15h54.49.194,Exp Visual Search,,2025.1.1,60.1169997,2025-09-30 15h55.00.821456 +0530
75,0,75,np.float64(-0.08981481481481482),np.float64(-0.40185185185185185),1,0,0,4.1829943,target',75,0,75,0,149.8645468,,10,149.850172,149.8645468,149.8645468,0.0326338,154.033279,np.float64(-0.08981481481481482),np.float64(-0.40185185185185185),1,0,0,4.1829943,target',4,1,2025-09-30_15h54.49.194,Exp Visual Search,,2025.1.1,60.1169997,2025-09-30 15h55.00.821456 +0530
77,0,77,np.float64(-0.46574074074074073),np.float64(-0.1537037037037037),1,0,0,1.6514535,target',77,0,77,0,155.3581942,,10,155.3483727,155.3581942,155.3581942,0.0979349,156.9999376,np.float64(-0.46574074074074073),np.float64(-0.1537037037037037),1,0,0,1.6514535,target',4,1,2025-09-30_15h54.49.194,Exp Visual Search,,2025.1.1,60.1169997,2025-09-30 15h55.00.821456 +0530
79,0,79,np.float64(-0.17222222222222222),np.float64(-0.030555555555555555),1,0,0,1.982141,target',79,0,79,0,158.6130185,,10,158.6003756,158.6130185,158.6130185,0.0334288,160.5826176,np.float64(-0.17222222222222222),np.float64(-0.030555555555555555),1,0,0,1.982141,target',4,1,2025-09-30_15h54.49.194,Exp Visual Search,,2025.1.1,60.1169997,2025-09-30 15h55.00.821456 +0530
80,0,80,np.float64(0.3731481481481482),np.float64(0.13425925925925927),1,0,0,1.8421658,target',80,0,80,0,160.6221906,,10,160.6074593,160.6221906,160.6221906,0.0245796,162.4497412,np.float64(0.3731481481481482),np.float64(0.13425925925925927),1,0,0,1.8421658,target',4,1,2025-09-30_15h54.49.194,Exp Visual Search,,2025.1.1,60.1169997,2025-09-30 15h55.00.821456 +0530
82,0,82,np.float64(0.14444444444444443),np.float64(-0.4685185185185185),1,0,0,2.473699,target',82,0,82,0,164.2893883,,10,164.2753454,164.2893883,164.2893883,0.0254421,166.7491565,np.float64(0.14444444444444443),np.float64(-0.4685185185185185),1,0,0,2.473699,target',4,1,2025-09-30_15h54.49.194,Exp Visual Search,,2025.1.1,60.1169997,2025-09-30 15h55.00.821456 +0530
83,0,83,np.float64(-0.10833333333333334),np.float64(-0.17222222222222222),1,0,0,3.3273679,target',83,0,83,0,166.7864154,,10,166.7720707,166.7864154,166.7864154,0.0226336,170.0995583,np.float64(-0.10833333333333334),np.float64(-0.17222222222222222),1,0,0,3.3273679,target',4,1,2025-09-30_15h54.49.194,Exp Visual Search,,2025.1.1,60.1169997,2025-09-30 15h55.00.821456 +0530
85,0,85,np.float64(-0.3638888888888889),np.float64(0.3685185185185185),1,0,0,1.3279451,target',85,0,85,0,172.0029808,,10,171.9879005,172.0029808,172.0029808,0.0221732,173.3159764,np.float64(-0.3638888888888889),np.float64(0.3685185185185185),1,0,0,1.3279451,target',4,1,2025-09-30_15h54.49.194,Exp Visual Search,,2025.1.1,60.1169997,2025-09-30 15h55.00.821456 +0530
88,0,88,np.float64(-0.325),np.float64(0.45),1,0,0,2.0898966,target',88,0,88,0,176.2842394,,10,176.274586,176.2842394,176.2842394,0.0257621,178.3645665,np.float64(-0.325),np.float64(0.45),1,0,0,2.0898966,target',4,1,2025-09-30_15h54.49.194,Exp Visual Search,,2025.1.1,60.1169997,2025-09-30 15h55.00.821456 +0530
91,0,91,np.float64(-0.014814814814814815),np.float64(-0.03796296296296296),1,0,0,3.3310261,target',91,0,91,0,182.1098499,,10,182.1002657,182.1098499,182.1098499,0.0355965,185.4314068,np.float64(-0.014814814814814815),np.float64(-0.03796296296296296),1,0,0,3.3310261,target',4,1,2025-09-30_15h54.49.194,Exp Visual Search,,2025.1.1,60.1169997,2025-09-30 15h55.00.821456 +0530
92,0,92,np.float64(0.33425925925925926),np.float64(-0.48148148148148145),1,0,0,2.6261038,target',92,0,92,0,185.4655537,,10,185.455711,185.4655537,185.4655537,0.0240119,188.0819297,np.float64(0.33425925925925926),np.float64(-0.48148148148148145),1,0,0,2.6261038,target',4,1,2025-09-30_15h54.49.194,Exp Visual Search,,2025.1.1,60.1169997,2025-09-30 15h55.00.821456 +0530
93,0,93,np.float64(-0.020370370370370372),np.float64(-0.42407407407407405),1,0,0,1.524125,target',93,0,93,0,188.1178696,,10,188.1069714,188.1178696,188.1178696,0.0247665,189.6312128,np.float64(-0.020370370370370372),np.float64(-0.42407407407407405),1,0,0,1.524125,target',4,1,2025-09-30_15h54.49.194,Exp Visual Search,,2025.1.1,60.1169997,2025-09-30 15h55.00.821456 +0530
94,0,94,np.float64(0.25),np.float64(-0.37962962962962965),1,0,0,1.959598,target',94,0,94,0,189.675807,,10,189.6542541,189.675807,189.675807,0.0227603,191.6139641,np.float64(0.25),np.float64(-0.37962962962962965),1,0,0,1.959598,target',4,1,2025-09-30_15h54.49.194,Exp Visual Search,,2025.1.1,60.1169997,2025-09-30 15h55.00.821456 +0530
95,0,95,np.float64(0.2898148148148148),np.float64(-0.287962962962963),1,0,0,2.0930616,target',95,0,95,0,191.647275,,10,191.6375026,191.647275,191.647275,0.0232721,193.7306793,np.float64(0.2898148148148148),np.float64(-0.287962962962963),1,0,0,2.0930616,target',4,1,2025-09-30_15h54.49.194,Exp Visual Search,,2025.1.1,60.1169997,2025-09-30 15h55.00.821456 +0530
96,0,96,np.float64(-0.14907407407407408),np.float64(0.3055555555555556),1,0,0,2.2792592,target',96,0,96,0,193.7826252,,10,193.7680049,193.7826252,193.7826252,0.0370354,196.047375,np.float64(-0.14907407407407408),np.float64(0.3055555555555556),1,0,0,2.2792592,target',4,1,2025-09-30_15h54.49.194,Exp Visual Search,,2025.1.1,60.1169997,2025-09-30 15h55.00.821456 +0530
99,0,99,np.float64(0.13055555555555556),np.float64(0.009259259259259259),1,0,0,1.3419604,target',99,0,99,0,199.1824893,,10,199.1717248,199.1824893,199.1824893,0.0241754,200.5137999,np.float64(0.13055555555555556),np.float64(0.009259259259259259),1,0,0,1.3419604,target',4,1,2025-09-30_15h54.49.194,Exp Visual Search,,2025.1.1,60.1169997,2025-09-30 15h55.00.821456 +0530
101,0,101,np.float64(-0.07037037037037037),np.float64(-0.22037037037037038),1,0,0,1.7233457,target',101,0,101,0,201.9496985,,10,201.9393154,201.9496985,201.9496985,0.0250395,203.6627407,np.float64(-0.07037037037037037),np.float64(-0.22037037037037038),1,0,0,1.7233457,target',4,1,2025-09-30_15h54.49.194,Exp Visual Search,,2025.1.1,60.1169997,2025-09-30 15h55.00.821456 +0530
103,0,103,np.float64(-0.46111111111111114),np.float64(-0.1824074074074074),1,0,0,3.2687118,target',103,0,103,0,205.0878363,,10,205.0782311,205.0878363,205.0878363,0.03064,208.3470518,np.float64(-0.46111111111111114),np.float64(-0.1824074074074074),1,0,0,3.2687118,target',4,1,2025-09-30_15h54.49.194,Exp Visual Search,,2025.1.1,60.1169997,2025-09-30 15h55.00.821456 +0530
105,0,105,np.float64(-0.26296296296296295),np.float64(-0.4305555555555556),1,0,0,2.1072139,target',105,0,105,0,209.9187668,,10,209.9053113,209.9187668,209.9187668,0.0248451,212.0126302,np.float64(-0.26296296296296295),np.float64(-0.4305555555555556),1,0,0,2.1072139,target',4,1,2025-09-30_15h54.49.194,Exp Visual Search,,2025.1.1,60.1169997,2025-09-30 15h55.00.821456 +0530
107,0,107,np.float64(-0.049074074074074076),np.float64(-0.44074074074074077),1,0,0,2.607897,target',107,0,107,0,213.6386338,,10,213.6220261,213.6386338,213.6386338,0.0415809,216.2300298,np.float64(-0.049074074074074076),np.float64(-0.44074074074074077),1,0,0,2.607897,target',4,1,2025-09-30_15h54.49.194,Exp Visual Search,,2025.1.1,60.1169997,2025-09-30 15h55.00.821456 +0530
109,0,109,np.float64(-0.2101851851851852),np.float64(-0.4638888888888889),1,0,0,3.576026,target',109,0,109,0,218.5668557,,10,218.5526038,218.5668557,218.5668557,0.0225679,222.1287416,np.float64(-0.2101851851851852),np.float64(-0.4638888888888889),1,0,0,3.576026,target',4,1,2025-09-30_15h54.49.194,Exp Visual Search,,2025.1.1,60.1169997,2025-09-30 15h55.00.821456 +0530
110,0,110,np.float64(0.1814814814814815),np.float64(0.33425925925925926),1,0,0,1.4839692,target',110,0,110,0,222.1774282,,10,222.1620772,222.1774282,222.1774282,0.0330628,223.6461548,np.float64(0.1814814814814815),np.float64(0.33425925925925926),1,0,0,1.4839692,target',4,1,2025-09-30_15h54.49.194,Exp Visual Search,,2025.1.1,60.1169997,2025-09-30 15h55.00.821456 +0530
111,0,111,np.float64(-0.38796296296296295),np.float64(-0.3398148148148148),1,0,0,1.6738664,target',111,0,111,0,223.6855794,,10,223.6721318,223.6855794,223.6855794,0.0256876,225.3461157,np.float64(-0.38796296296296295),np.float64(-0.3398148148148148),1,0,0,1.6738664,target',4,1,2025-09-30_15h54.49.194,Exp Visual Search,,2025.1.1,60.1169997,2025-09-30 15h55.00.821456 +0530
112,0,112,np.float64(0.08148148148148149),np.float64(0.011111111111111112),1,0,0,1.7417047,target',112,0,112,0,225.3862827,,10,225.3707993,225.3862827,225.3862827,0.0244112,227.1126097,np.float64(0.08148148148148149),np.float64(0.011111111111111112),1,0,0,1.7417047,target',4,1,2025-09-30_15h54.49.194,Exp Visual Search,,2025.1.1,60.1169997,2025-09-30 15h55.00.821456 +0530
113,0,113,np.float64(-0.43796296296296294),np.float64(-0.027777777777777776),1,0,0,1.7173326,target',113,0,113,0,227.1578203,,10,227.144744,227.1578203,227.1578203,0.0318865,228.8621929,np.float64(-0.43796296296296294),np.float64(-0.027777777777777776),1,0,0,1.7173326,target',4,1,2025-09-30_15h54.49.194,Exp Visual Search,,2025.1.1,60.1169997,2025-09-30 15h55.00.821456 +0530
116,0,116,np.float64(-0.09537037037037037),np.float64(0.4601851851851852),1,0,0,6.8407058,target',116,0,116,0,232.2033621,,10,232.1877479,232.2033621,232.2033621,0.0253874,239.028566,np.float64(-0.09537037037037037),np.float64(0.4601851851851852),1,0,0,6.8407058,target',4,1,2025-09-30_15h54.49.194,Exp Visual Search,,2025.1.1,60.1169997,2025-09-30 15h55.00.821456 +0530
117,0,117,np.float64(-0.17407407407407408),np.float64(-0.15462962962962962),1,0,0,2.0030898,target',117,0,117,0,239.0715888,,10,239.0580652,239.0715888,239.0715888,0.0292269,241.0612611,np.float64(-0.17407407407407408),np.float64(-0.15462962962962962),1,0,0,2.0030898,target',4,1,2025-09-30_15h54.49.194,Exp Visual Search,,2025.1.1,60.1169997,2025-09-30 15h55.00.821456 +0530
118,0,118,np.float64(0.15462962962962962),np.float64(-0.4074074074074074),1,0,0,1.3707056,target',118,0,118,0,241.1027883,,10,241.0901999,241.1027883,241.1027883,0.0287015,242.4610045,np.float64(0.15462962962962962),np.float64(-0.4074074074074074),1,0,0,1.3707056,target',4,1,2025-09-30_15h54.49.194,Exp Visual Search,,2025.1.1,60.1169997,2025-09-30 15h55.00.821456 +0530
120,0,120,np.float64(0.0787037037037037),np.float64(0.45555555555555555),1,0,0,5.2119826,target',120,0,120,0,244.4294134,,10,244.4156531,244.4294134,244.4294134,0.0219234,249.6277097,np.float64(0.0787037037037037),np.float64(0.45555555555555555),1,0,0,5.2119826,target',4,1,2025-09-30_15h54.49.194,Exp Visual Search,,2025.1.1,60.1169997,2025-09-30 15h55.00.821456 +0530
121,0,121,np.float64(0.24166666666666667),np.float64(-0.019444444444444445),1,0,0,2.6401741,target',121,0,121,0,249.6651221,,10,249.6528399,249.6651221,249.6651221,0.0249967,252.2930856,np.float64(0.24166666666666667),np.float64(-0.019444444444444445),1,0,0,2.6401741,target',4,1,2025-09-30_15h54.49.194,Exp Visual Search,,2025.1.1,60.1169997,2025-09-30 15h55.00.821456 +0530
122,0,122,np.float64(-0.45092592592592595),np.float64(0.3888888888888889),1,0,0,2.0115799,target',122,0,122,0,252.3288149,,10,252.3154427,252.3288149,252.3288149,0.0222064,254.3271681,np.float64(-0.45092592592592595),np.float64(0.3888888888888889),1,0,0,2.0115799,target',4,1,2025-09-30_15h54.49.194,Exp Visual Search,,2025.1.1,60.1169997,2025-09-30 15h55.00.821456 +0530
124,0,124,np.float64(0.39537037037037037),np.float64(0.12962962962962962),1,0,0,1.272632,target',124,0,124,0,256.7201619,,10,256.7030529,256.7201619,256.7201619,0.042933,257.9757609,np.float64(0.39537037037037037),np.float64(0.12962962962962962),1,0,0,1.272632,target',4,1,2025-09-30_15h54.49.194,Exp Visual Search,,2025.1.1,60.1169997,2025-09-30 15h55.00.821456 +0530
125,0,125,np.float64(0.10648148148148148),np.float64(0.1398148148148148),1,0,0,1.3583496,target',125,0,125,0,258.0144502,,10,258.0014911,258.0144502,258.0144502,0.0255491,259.359914,np.float64(0.10648148148148148),np.float64(0.1398148148148148),1,0,0,1.3583496,target',4,1,2025-09-30_15h54.49.194,Exp Visual Search,,2025.1.1,60.1169997,2025-09-30 15h55.00.821456 +0530
126,0,126,np.float64(0.18055555555555555),np.float64(0.3851851851851852),1,0,0,1.3280771,target',126,0,126,0,259.3930812,,10,259.381963,259.3930812,259.3930812,0.0218757,260.7101398,np.float64(0.18055555555555555),np.float64(0.3851851851851852),1,0,0,1.3280771,target',4,1,2025-09-30_15h54.49.194,Exp Visual Search,,2025.1.1,60.1169997,2025-09-30 15h55.00.821456 +0530
127,0,127,np.float64(0.32222222222222224),np.float64(0.4111111111111111),1,0,0,1.5985569,target',127,0,127,0,260.7598487,,10,260.7445605,260.7598487,260.7598487,0.0342073,262.3432271,np.float64(0.32222222222222224),np.float64(0.4111111111111111),1,0,0,1.5985569,target',4,1,2025-09-30_15h54.49.194,Exp Visual Search,,2025.1.1,60.1169997,2025-09-30 15h55.00.821456 +0530
128,0,128,np.float64(-0.12962962962962962),np.float64(0.14537037037037037),1,0,0,1.8283481,target',128,0,128,0,262.4014706,,10,262.3823472,262.4014706,262.4014706,0.0389061,264.210794,np.float64(-0.12962962962962962),np.float64(0.14537037037037037),1,0,0,1.8283481,target',4,1,2025-09-30_15h54.49.194,Exp Visual Search,,2025.1.1,60.1169997,2025-09-30 15h55.00.821456 +0530
130,0,130,np.float64(-0.3296296296296296),np.float64(-0.30277777777777776),1,0,0,2.1224379,target',130,0,130,0,265.6897564,,10,265.6703954,265.6897564,265.6897564,0.0260407,267.7929141,np.float64(-0.3296296296296296),np.float64(-0.30277777777777776),1,0,0,2.1224379,target',4,1,2025-09-30_15h54.49.194,Exp Visual Search,,2025.1.1,60.1169997,2025-09-30 15h55.00.821456 +0530
134,0,134,np.float64(-0.03425925925925926),np.float64(-0.20462962962962963),1,0,0,1.7305979,target',134,0,134,0,274.3540889,,10,274.3440115,274.3540889,274.3540889,0.0192802,276.0746697,np.float64(-0.03425925925925926),np.float64(-0.20462962962962963),1,0,0,1.7305979,target',4,1,2025-09-30_15h54.49.194,Exp Visual Search,,2025.1.1,60.1169997,2025-09-30 15h55.00.821456 +0530
135,0,135,np.float64(-0.34814814814814815),np.float64(-0.10462962962962963),1,0,0,1.9404619,target',135,0,135,0,276.1130102,,10,276.1018335,276.1130102,276.1130102,0.0269964,278.0424078,np.float64(-0.34814814814814815),np.float64(-0.10462962962962963),1,0,0,1.9404619,target',4,1,2025-09-30_15h54.49.194,Exp Visual Search,,2025.1.1,60.1169997,2025-09-30 15h55.00.821456 +0530
140,0,140,np.float64(0.48148148148148145),np.float64(0.2638888888888889),1,0,0,1.8585048,target',140,0,140,0,285.4128165,,10,285.399517,285.4128165,285.4128165,0.0243459,287.2581332,np.float64(0.48148148148148145),np.float64(0.2638888888888889),1,0,0,1.8585048,target',4,1,2025-09-30_15h54.49.194,Exp Visual Search,,2025.1.1,60.1169997,2025-09-30 15h55.00.821456 +0530
141,0,141,np.float64(0.2916666666666667),np.float64(-0.10833333333333334),1,0,0,2.5347596,target',141,0,141,0,287.3070899,,10,287.2902944,287.3070899,287.3070899,0.0319001,289.8251671,np.float64(0.2916666666666667),np.float64(-0.10833333333333334),1,0,0,2.5347596,target',4,1,2025-09-30_15h54.49.194,Exp Visual Search,,2025.1.1,60.1169997,2025-09-30 15h55.00.821456 +0530
142,0,142,np.float64(-0.32407407407407407),np.float64(-0.17407407407407408),1,0,0,2.4263405,target',142,0,142,0,289.8659365,,10,289.8491649,289.8659365,289.8659365,0.0237199,292.2757203,np.float64(-0.32407407407407407),np.float64(-0.17407407407407408),1,0,0,2.4263405,target',4,1,2025-09-30_15h54.49.194,Exp Visual Search,,2025.1.1,60.1169997,2025-09-30 15h55.00.821456 +0530
146,0,146,np.float64(-0.1638888888888889),np.float64(-0.013888888888888888),1,0,0,3.0893017,target',146,0,146,0,297.600824,,10,297.5857742,297.600824,297.600824,0.0276427,300.6751656,np.float64(-0.1638888888888889),np.float64(-0.013888888888888888),1,0,0,3.0893017,target',4,1,2025-09-30_15h54.49.194,Exp Visual Search,,2025.1.1,60.1169997,2025-09-30 15h55.00.821456 +0530
148,0,148,np.float64(0.013888888888888888),np.float64(0.27314814814814814),1,0,0,2.7915207,target',148,0,148,0,303.5618801,,10,303.5481743,303.5618801,303.5618801,0.0233142,306.3397555,np.float64(0.013888888888888888),np.float64(0.27314814814814814),1,0,0,2.7915207,target',4,1,2025-09-30_15h54.49.194,Exp Visual Search,,2025.1.1,60.1169997,2025-09-30 15h55.00.821456 +0530
149,0,149,np.float64(-0.4564814814814815),np.float64(-0.012962962962962963),1,0,0,2.7309496,target',149,0,149,0,306.387242,,10,306.3760465,306.387242,306.387242,0.0361678,309.1071085,np.float64(-0.4564814814814815),np.float64(-0.012962962962962963),1,0,0,2.7309496,target',4,1,2025-09-30_15h54.49.194,Exp Visual Search,,2025.1.1,60.1169997,2025-09-30 15h55.00.821456 +0530
150,0,150,np.float64(0.4324074074074074),np.float64(-0.45092592592592595),1,0,0,3.2579802,target',150,0,150,0,309.1450103,,10,309.1328812,309.1450103,309.1450103,0.0255122,312.390988,np.float64(0.4324074074074074),np.float64(-0.45092592592592595),1,0,0,3.2579802,target',4,1,2025-09-30_15h54.49.194,Exp Visual Search,,2025.1.1,60.1169997,2025-09-30 15h55.00.821456 +0530
152,0,152,np.float64(0.22592592592592592),np.float64(0.45185185185185184),1,0,0,3.5087755,target',152,0,152,0,314.2789368,,10,314.2645156,314.2789368,314.2789368,0.0242391,317.7734019,np.float64(0.22592592592592592),np.float64(0.45185185185185184),1,0,0,3.5087755,target',4,1,2025-09-30_15h54.49.194,Exp Visual Search,,2025.1.1,60.1169997,2025-09-30 15h55.00.821456 +0530
153,0,153,np.float64(-0.3685185185185185),np.float64(0.040740740740740744),1,0,0,5.2628198,target',153,0,153,0,317.8258126,,10,317.8099657,317.8258126,317.8258126,0.036306,323.072896,np.float64(-0.3685185185185185),np.float64(0.040740740740740744),1,0,0,5.2628198,target',4,1,2025-09-30_15h54.49.194,Exp Visual Search,,2025.1.1,60.1169997,2025-09-30 15h55.00.821456 +0530
154,0,154,np.float64(-0.4324074074074074),np.float64(-0.2861111111111111),1,0,0,2.8599371,target',154,0,154,0,323.1111356,,10,323.0966645,323.1111356,323.1111356,0.0235044,325.9567155,np.float64(-0.4324074074074074),np.float64(-0.2861111111111111),1,0,0,2.8599371,target',4,1,2025-09-30_15h54.49.194,Exp Visual Search,,2025.1.1,60.1169997,2025-09-30 15h55.00.821456 +0530
160,0,160,np.float64(-0.29444444444444445),np.float64(-0.28425925925925927),1,0,0,2.037267,target',160,0,160,0,336.3000102,,10,336.2849163,336.3000102,336.3000102,0.0455614,338.3222962,np.float64(-0.29444444444444445),np.float64(-0.28425925925925927),1,0,0,2.037267,target',4,1,2025-09-30_15h54.49.194,Exp Visual Search,,2025.1.1,60.1169997,2025-09-30 15h55.00.821456 +0530
161,0,161,np.float64(-0.4537037037037037),np.float64(-0.04351851851851852),1,0,0,1.6035092,target',161,0,161,0,338.3849641,,10,338.3687754,338.3849641,338.3849641,0.0462074,339.9724013,np.float64(-0.4537037037037037),np.float64(-0.04351851851851852),1,0,0,1.6035092,target',4,1,2025-09-30_15h54.49.194,Exp Visual Search,,2025.1.1,60.1169997,2025-09-30 15h55.00.821456 +0530
164,0,164,np.float64(0.3787037037037037),np.float64(-0.1361111111111111),1,0,0,1.5249728,target',164,0,164,0,344.0753469,,10,344.0633057,344.0753469,344.0753469,0.0243789,345.5883962,np.float64(0.3787037037037037),np.float64(-0.1361111111111111),1,0,0,1.5249728,target',4,1,2025-09-30_15h54.49.194,Exp Visual Search,,2025.1.1,60.1169997,2025-09-30 15h55.00.821456 +0530
165,0,165,np.float64(-0.3925925925925926),np.float64(-0.05277777777777778),1,0,0,1.8264613,target',165,0,165,0,345.6247347,,10,345.6117664,345.6247347,345.6247347,0.0231042,347.4383414,np.float64(-0.3925925925925926),np.float64(-0.05277777777777778),1,0,0,1.8264613,target',4,1,2025-09-30_15h54.49.194,Exp Visual Search,,2025.1.1,60.1169997,2025-09-30 15h55.00.821456 +0530
166,0,166,np.float64(0.362962962962963),np.float64(0.23981481481481481),1,0,0,2.0241387,target',166,0,166,0,347.4975015,,10,347.4803153,347.4975015,347.4975015,0.041693,349.5045681,np.float64(0.362962962962963),np.float64(0.23981481481481481),1,0,0,2.0241387,target',4,1,2025-09-30_15h54.49.194,Exp Visual Search,,2025.1.1,60.1169997,2025-09-30 15h55.00.821456 +0530
168,0,168,np.float64(-0.30185185185185187),np.float64(-0.10740740740740741),1,0,0,1.225479,target',168,0,168,0,351.4447619,,10,351.4290068,351.4447619,351.4447619,0.024432,352.6545948,np.float64(-0.30185185185185187),np.float64(-0.10740740740740741),1,0,0,1.225479,target',4,1,2025-09-30_15h54.49.194,Exp Visual Search,,2025.1.1,60.1169997,2025-09-30 15h55.00.821456 +0530
174,0,174,np.float64(0.3592592592592593),np.float64(0.3037037037037037),1,0,0,1.6745603,target',174,0,174,0,361.118826,,10,361.0957665,361.118826,361.118826,0.0554703,362.7704198,np.float64(0.3592592592592593),np.float64(0.3037037037037037),1,0,0,1.6745603,target',4,1,2025-09-30_15h54.49.194,Exp Visual Search,,2025.1.1,60.1169997,2025-09-30 15h55.00.821456 +0530
178,0,178,np.float64(-0.1361111111111111),np.float64(-0.337037037037037),1,0,0,1.9415094,target',178,0,178,0,368.4080705,,10,368.3951578,368.4080705,368.4080705,0.0249998,370.3367728,np.float64(-0.1361111111111111),np.float64(-0.337037037037037),1,0,0,1.9415094,target',4,1,2025-09-30_15h54.49.194,Exp Visual Search,,2025.1.1,60.1169997,2025-09-30 15h55.00.821456 +0530
179,0,179,np.float64(0.07222222222222222),np.float64(-0.21851851851851853),1,0,0,1.2915276,target',179,0,179,0,370.3768319,,10,370.3629215,370.3768319,370.3768319,0.0259061,371.6545659,np.float64(0.07222222222222222),np.float64(-0.21851851851851853),1,0,0,1.2915276,target',4,1,2025-09-30_15h54.49.194,Exp Visual Search,,2025.1.1,60.1169997,2025-09-30 15h55.00.821456 +0530
181,0,181,np.float64(0.41944444444444445),np.float64(-0.12407407407407407),1,0,0,1.2746594,target',181,0,181,0,373.1598981,,10,373.1449256,373.1598981,373.1598981,0.0241405,374.4197023,np.float64(0.41944444444444445),np.float64(-0.12407407407407407),1,0,0,1.2746594,target',4,1,2025-09-30_15h54.49.194,Exp Visual Search,,2025.1.1,60.1169997,2025-09-30 15h55.00.821456 +0530
182,0,182,np.float64(0.1935185185185185),np.float64(-0.2462962962962963),1,0,0,1.7591345,target',182,0,182,0,374.4597857,,10,374.4441124,374.4597857,374.4597857,0.0241492,376.203367,np.float64(0.1935185185185185),np.float64(-0.2462962962962963),1,0,0,1.7591345,target',4,1,2025-09-30_15h54.49.194,Exp Visual Search,,2025.1.1,60.1169997,2025-09-30 15h55.00.821456 +0530
185,0,185,np.float64(-0.08518518518518518),np.float64(0.36666666666666664),1,0,0,2.5721716,target',185,0,185,0,379.7670655,,10,379.7466874,379.7670655,379.7670655,0.0265429,382.318954,np.float64(-0.08518518518518518),np.float64(0.36666666666666664),1,0,0,2.5721716,target',4,1,2025-09-30_15h54.49.194,Exp Visual Search,,2025.1.1,60.1169997,2025-09-30 15h55.00.821456 +0530
187,0,187,np.float64(0.037037037037037035),np.float64(0.21851851851851853),1,0,0,2.7097368,target',187,0,187,0,383.6392218,,10,383.6255454,383.6392218,383.6392218,0.0222423,386.3353553,np.float64(0.037037037037037035),np.float64(0.21851851851851853),1,0,0,2.7097368,target',4,1,2025-09-30_15h54.49.194,Exp Visual Search,,2025.1.1,60.1169997,2025-09-30 15h55.00.821456 +0530
190,0,190,np.float64(0.33796296296296297),np.float64(-0.23055555555555557),1,0,0,1.7915834,target',190,0,190,0,389.6760628,,10,389.6606568,389.6760628,389.6760628,0.0243094,391.4523519,np.float64(0.33796296296296297),np.float64(-0.23055555555555557),1,0,0,1.7915834,target',4,1,2025-09-30_15h54.49.194,Exp Visual Search,,2025.1.1,60.1169997,2025-09-30 15h55.00.821456 +0530
195,0,195,np.float64(0.4222222222222222),np.float64(-0.09351851851851851),1,0,0,1.5014871,target',195,0,195,0,399.4172172,,10,399.400481,399.4172172,399.4172172,0.0321146,400.9020787,np.float64(0.4222222222222222),np.float64(-0.09351851851851851),1,0,0,1.5014871,target',4,1,2025-09-30_15h54.49.194,Exp Visual Search,,2025.1.1,60.1169997,2025-09-30 15h55.00.821456 +0530
199,0,199,np.float64(0.487962962962963),np.float64(-0.44907407407407407),1,0,0,3.5672355,target',199,0,199,0,403.1217131,,10,403.1010994,403.1217131,403.1217131,0.0324208,406.6684466,np.float64(0.487962962962963),np.float64(-0.44907407407407407),1,0,0,3.5672355,target',4,1,2025-09-30_15h54.49.194,Exp Visual Search,,2025.1.1,60.1169997,2025-09-30 15h55.00.821456 +0530
,,,,,,,,,,,,,,,,,,,,,,,,,,,,,,,,,,,,
,,,,,,,,Average for 5 dist,,1.769770015,5,,,,,,,,,,,,,,,,,,,,,,,,,
,,,,,,,,Average for 10 dist,,2.280777702,10,,,,,,,,,,,,,,,,,,,,,,,,,
,,,,,,,,Slope,,0.1022015374,,,,,,,,,,,,,,,,,,,,,,,,,,