thisN,thisTrialN,thisRepN,mouse.x,mouse.y,mouse.leftButton,mouse.midButton,mouse.rightButton,mouse.time,mouse.clicked_name,trials.thisRepN,trials.thisTrialN,trials.thisN,trials.thisIndex,thisRow.t,notes,num_distr,trial.started,Fixation.started,target.started,mouse.started,trial.stopped,trials.mouse.x,trials.mouse.y,trials.mouse.leftButton,trials.mouse.midButton,trials.mouse.rightButton,trials.mouse.time,trials.mouse.clicked_name,participant,session,date,expName,expVersion,psychopyVersion,frameRate,expStart
0,0,0,np.float64(0.30092592592592593),np.float64(-0.001851851851851852),1,0,0,1.1937383,target',0,0,0,0,0.0331094,,5,0.0226682,0.0331094,0.0331094,0.02269,1.2164619,np.float64(0.30092592592592593),np.float64(-0.001851851851851852),1,0,0,1.1937383,target',3,1,2025-09-30_15h29.36.087,Exp Visual Search,,2025.1.1,60.00736891,2025-09-30 15h29.46.791160 +0530
4,0,4,np.float64(-0.125),np.float64(-0.10925925925925926),1,0,0,1.6230394,target',4,0,4,0,8.0164317,,5,8.0086587,8.0164317,8.0164317,0.0095269,9.6317726,np.float64(-0.125),np.float64(-0.10925925925925926),1,0,0,1.6230394,target',3,1,2025-09-30_15h29.36.087,Exp Visual Search,,2025.1.1,60.00736891,2025-09-30 15h29.46.791160 +0530
6,0,6,np.float64(-0.027777777777777776),np.float64(-0.0824074074074074),1,0,0,1.7376064,target',6,0,6,0,11.0522936,,5,11.0448899,11.0522936,11.0522936,0.0126412,12.7825737,np.float64(-0.027777777777777776),np.float64(-0.0824074074074074),1,0,0,1.7376064,target',3,1,2025-09-30_15h29.36.087,Exp Visual Search,,2025.1.1,60.00736891,2025-09-30 15h29.46.791160 +0530
7,0,7,np.float64(-0.014814814814814815),np.float64(0.22962962962962963),1,0,0,1.3053575,target',7,0,7,0,12.8005927,,5,12.7927087,12.8005927,12.8005927,0.0100026,14.0981192,np.float64(-0.014814814814814815),np.float64(0.22962962962962963),1,0,0,1.3053575,target',3,1,2025-09-30_15h29.36.087,Exp Visual Search,,2025.1.1,60.00736891,2025-09-30 15h29.46.791160 +0530
8,0,8,np.float64(-0.46111111111111114),np.float64(0.47129629629629627),1,0,0,1.7398144,target',8,0,8,0,14.1169511,,5,14.1085224,14.1169511,14.1169511,0.0103088,15.8484464,np.float64(-0.46111111111111114),np.float64(0.47129629629629627),1,0,0,1.7398144,target',3,1,2025-09-30_15h29.36.087,Exp Visual Search,,2025.1.1,60.00736891,2025-09-30 15h29.46.791160 +0530
10,0,10,np.float64(0.4935185185185185),np.float64(0.06759259259259259),1,0,0,1.3740321,target',10,0,10,0,18.0813565,,5,18.0741206,18.0813565,18.0813565,0.0094297,19.4482277,np.float64(0.4935185185185185),np.float64(0.06759259259259259),1,0,0,1.3740321,target',3,1,2025-09-30_15h29.36.087,Exp Visual Search,,2025.1.1,60.00736891,2025-09-30 15h29.46.791160 +0530
11,0,11,np.float64(-0.1712962962962963),np.float64(-0.1),1,0,0,1.6213725,target',11,0,11,0,19.469083,,5,19.460061,19.469083,19.469083,0.011657,21.0814849,np.float64(-0.1712962962962963),np.float64(-0.1),1,0,0,1.6213725,target',3,1,2025-09-30_15h29.36.087,Exp Visual Search,,2025.1.1,60.00736891,2025-09-30 15h29.46.791160 +0530
12,0,12,np.float64(0.29907407407407405),np.float64(0.48148148148148145),1,0,0,1.7061109,target',12,0,12,0,21.1000883,,5,21.0913665,21.1000883,21.1000883,0.0097881,22.7975357,np.float64(0.29907407407407405),np.float64(0.48148148148148145),1,0,0,1.7061109,target',3,1,2025-09-30_15h29.36.087,Exp Visual Search,,2025.1.1,60.00736891,2025-09-30 15h29.46.791160 +0530
13,0,13,np.float64(0.375),np.float64(-0.05185185185185185),1,0,0,1.6733934,target',13,0,13,0,22.8162273,,5,22.8074784,22.8162273,22.8162273,0.0098337,24.4809334,np.float64(0.375),np.float64(-0.05185185185185185),1,0,0,1.6733934,target',3,1,2025-09-30_15h29.36.087,Exp Visual Search,,2025.1.1,60.00736891,2025-09-30 15h29.46.791160 +0530
14,0,14,np.float64(0.26944444444444443),np.float64(-0.1527777777777778),1,0,0,1.1865707,target',14,0,14,0,24.5025918,,5,24.4943147,24.5025918,24.5025918,0.0131369,25.6809446,np.float64(0.26944444444444443),np.float64(-0.1527777777777778),1,0,0,1.1865707,target',3,1,2025-09-30_15h29.36.087,Exp Visual Search,,2025.1.1,60.00736891,2025-09-30 15h29.46.791160 +0530
15,0,15,np.float64(-0.3314814814814815),np.float64(0.43703703703703706),1,0,0,1.9227999,target',15,0,15,0,25.6991669,,5,25.6907845,25.6991669,25.6991669,0.0097198,27.6136407,np.float64(-0.3314814814814815),np.float64(0.43703703703703706),1,0,0,1.9227999,target',3,1,2025-09-30_15h29.36.087,Exp Visual Search,,2025.1.1,60.00736891,2025-09-30 15h29.46.791160 +0530
16,0,16,np.float64(-0.44537037037037036),np.float64(-0.44814814814814813),1,0,0,1.6570087,target',16,0,16,0,27.6345385,,5,27.6233935,27.6345385,27.6345385,0.0096389,29.2804926,np.float64(-0.44537037037037036),np.float64(-0.44814814814814813),1,0,0,1.6570087,target',3,1,2025-09-30_15h29.36.087,Exp Visual Search,,2025.1.1,60.00736891,2025-09-30 15h29.46.791160 +0530
19,0,19,np.float64(0.4981481481481482),np.float64(0.018518518518518517),1,0,0,2.0735591,target',19,0,19,0,32.6980471,,5,32.6904607,32.6980471,32.6980471,0.0096599,34.7640949,np.float64(0.4981481481481482),np.float64(0.018518518518518517),1,0,0,2.0735591,target',3,1,2025-09-30_15h29.36.087,Exp Visual Search,,2025.1.1,60.00736891,2025-09-30 15h29.46.791160 +0530
20,0,20,np.float64(0.4462962962962963),np.float64(-0.34629629629629627),1,0,0,1.6211773,target',20,0,20,0,34.7847047,,5,34.7766945,34.7847047,34.7847047,0.0124535,36.3979439,np.float64(0.4462962962962963),np.float64(-0.34629629629629627),1,0,0,1.6211773,target',3,1,2025-09-30_15h29.36.087,Exp Visual Search,,2025.1.1,60.00736891,2025-09-30 15h29.46.791160 +0530
22,0,22,np.float64(0.40925925925925927),np.float64(0.44537037037037036),1,0,0,1.9197923,target',22,0,22,0,38.6683217,,5,38.6600987,38.6683217,38.6683217,0.0133838,40.5799476,np.float64(0.40925925925925927),np.float64(0.44537037037037036),1,0,0,1.9197923,target',3,1,2025-09-30_15h29.36.087,Exp Visual Search,,2025.1.1,60.00736891,2025-09-30 15h29.46.791160 +0530
24,0,24,np.float64(-0.2611111111111111),np.float64(-0.23425925925925925),1,0,0,1.2572376,target',24,0,24,0,43.4996199,,5,43.4893758,43.4996199,43.4996199,0.0095728,44.7466856,np.float64(-0.2611111111111111),np.float64(-0.23425925925925925),1,0,0,1.2572376,target',3,1,2025-09-30_15h29.36.087,Exp Visual Search,,2025.1.1,60.00736891,2025-09-30 15h29.46.791160 +0530
26,0,26,np.float64(0.3351851851851852),np.float64(-0.04259259259259259),1,0,0,1.2879399,target',26,0,26,0,46.9176599,,5,46.9084976,46.9176599,46.9176599,0.0116977,48.1965168,np.float64(0.3351851851851852),np.float64(-0.04259259259259259),1,0,0,1.2879399,target',3,1,2025-09-30_15h29.36.087,Exp Visual Search,,2025.1.1,60.00736891,2025-09-30 15h29.46.791160 +0530
29,0,29,np.float64(0.1675925925925926),np.float64(0.1175925925925926),1,0,0,1.3069868,target',29,0,29,0,51.3145343,,5,51.3063055,51.3145343,51.3145343,0.009561,52.6134041,np.float64(0.1675925925925926),np.float64(0.1175925925925926),1,0,0,1.3069868,target',3,1,2025-09-30_15h29.36.087,Exp Visual Search,,2025.1.1,60.00736891,2025-09-30 15h29.46.791160 +0530
32,0,32,np.float64(-0.4675925925925926),np.float64(-0.1712962962962963),1,0,0,1.1225594,target',32,0,32,0,55.8144368,,5,55.8066015,55.8144368,55.8144368,0.0103389,56.9292151,np.float64(-0.4675925925925926),np.float64(-0.1712962962962963),1,0,0,1.1225594,target',3,1,2025-09-30_15h29.36.087,Exp Visual Search,,2025.1.1,60.00736891,2025-09-30 15h29.46.791160 +0530
35,0,35,np.float64(0.36574074074074076),np.float64(0.23055555555555557),1,0,0,1.2024488,target',35,0,35,0,60.1020069,,5,60.0936126,60.1020069,60.1020069,0.0143419,61.296164,np.float64(0.36574074074074076),np.float64(0.23055555555555557),1,0,0,1.2024488,target',3,1,2025-09-30_15h29.36.087,Exp Visual Search,,2025.1.1,60.00736891,2025-09-30 15h29.46.791160 +0530
36,0,36,np.float64(-0.36944444444444446),np.float64(0.175),1,0,0,1.1681923,target',36,0,36,0,61.3195211,,5,61.3111619,61.3195211,61.3195211,0.0147747,62.4794331,np.float64(-0.36944444444444446),np.float64(0.175),1,0,0,1.1681923,target',3,1,2025-09-30_15h29.36.087,Exp Visual Search,,2025.1.1,60.00736891,2025-09-30 15h29.46.791160 +0530
37,0,37,np.float64(0.06111111111111111),np.float64(0.3675925925925926),1,0,0,1.336613,None,37,0,37,0,62.5000786,,5,62.492102,62.5000786,62.5000786,0.0124826,63.8287789,np.float64(0.06111111111111111),np.float64(0.3675925925925926),1,0,0,1.336613,None,3,1,2025-09-30_15h29.36.087,Exp Visual Search,,2025.1.1,60.00736891,2025-09-30 15h29.46.791160 +0530
38,0,38,np.float64(0.4777777777777778),np.float64(-0.38333333333333336),1,0,0,1.387862,None,38,0,38,0,63.8493281,,5,63.8410154,63.8493281,63.8493281,0.0121354,65.2289841,np.float64(0.4777777777777778),np.float64(-0.38333333333333336),1,0,0,1.387862,None,3,1,2025-09-30_15h29.36.087,Exp Visual Search,,2025.1.1,60.00736891,2025-09-30 15h29.46.791160 +0530
39,0,39,np.float64(0.17314814814814813),np.float64(-0.4648148148148148),1,0,0,1.6876846,None,39,0,39,0,65.2494933,,5,65.2417405,65.2494933,65.2494933,0.0125906,66.929506,np.float64(0.17314814814814813),np.float64(-0.4648148148148148),1,0,0,1.6876846,None,3,1,2025-09-30_15h29.36.087,Exp Visual Search,,2025.1.1,60.00736891,2025-09-30 15h29.46.791160 +0530
40,0,40,np.float64(-0.262037037037037),np.float64(0.1814814814814815),1,0,0,1.4390133,target',40,0,40,0,66.9514954,,5,66.9397369,66.9514954,66.9514954,0.0101173,68.3788591,np.float64(-0.262037037037037),np.float64(0.1814814814814815),1,0,0,1.4390133,target',3,1,2025-09-30_15h29.36.087,Exp Visual Search,,2025.1.1,60.00736891,2025-09-30 15h29.46.791160 +0530
41,0,41,np.float64(-0.4537037037037037),np.float64(0.1259259259259259),1,0,0,1.1174576,target',41,0,41,0,68.4027738,,5,68.3939841,68.4027738,68.4027738,0.0149262,69.5115041,np.float64(-0.4537037037037037),np.float64(0.1259259259259259),1,0,0,1.1174576,target',3,1,2025-09-30_15h29.36.087,Exp Visual Search,,2025.1.1,60.00736891,2025-09-30 15h29.46.791160 +0530
44,0,44,np.float64(0.03425925925925926),np.float64(-0.2175925925925926),1,0,0,1.3533005,target',44,0,44,0,72.2676227,,5,72.2583621,72.2676227,72.2676227,0.012779,73.6117561,np.float64(0.03425925925925926),np.float64(-0.2175925925925926),1,0,0,1.3533005,target',3,1,2025-09-30_15h29.36.087,Exp Visual Search,,2025.1.1,60.00736891,2025-09-30 15h29.46.791160 +0530
45,0,45,np.float64(-0.2777777777777778),np.float64(-0.34444444444444444),1,0,0,1.2011333,target',45,0,45,0,73.6364746,,5,73.6264088,73.6364746,73.6364746,0.0144678,74.8275937,np.float64(-0.2777777777777778),np.float64(-0.34444444444444444),1,0,0,1.2011333,target',3,1,2025-09-30_15h29.36.087,Exp Visual Search,,2025.1.1,60.00736891,2025-09-30 15h29.46.791160 +0530
46,0,46,np.float64(-0.2361111111111111),np.float64(0.43333333333333335),1,0,0,2.0555728,target',46,0,46,0,74.8500232,,5,74.8387382,74.8500232,74.8500232,0.0110615,76.8943566,np.float64(-0.2361111111111111),np.float64(0.43333333333333335),1,0,0,2.0555728,target',3,1,2025-09-30_15h29.36.087,Exp Visual Search,,2025.1.1,60.00736891,2025-09-30 15h29.46.791160 +0530
48,0,48,np.float64(-0.4842592592592593),np.float64(0.1425925925925926),1,0,0,1.5729952,target',48,0,48,0,79.5813154,,5,79.571067,79.5813154,79.5813154,0.009326,81.1441211,np.float64(-0.4842592592592593),np.float64(0.1425925925925926),1,0,0,1.5729952,target',3,1,2025-09-30_15h29.36.087,Exp Visual Search,,2025.1.1,60.00736891,2025-09-30 15h29.46.791160 +0530
52,0,52,np.float64(0.09444444444444444),np.float64(-0.021296296296296296),1,0,0,1.3742175,target',52,0,52,0,86.0281275,,5,86.0197003,86.0281275,86.0281275,0.0091486,87.3939984,np.float64(0.09444444444444444),np.float64(-0.021296296296296296),1,0,0,1.3742175,target',3,1,2025-09-30_15h29.36.087,Exp Visual Search,,2025.1.1,60.00736891,2025-09-30 15h29.46.791160 +0530
53,0,53,np.float64(0.09444444444444444),np.float64(-0.021296296296296296),1,0,0,0.3033504,None,53,0,53,0,87.416964,,5,87.407274,87.416964,87.416964,0.0131343,87.710682,np.float64(0.09444444444444444),np.float64(-0.021296296296296296),1,0,0,0.3033504,None,3,1,2025-09-30_15h29.36.087,Exp Visual Search,,2025.1.1,60.00736891,2025-09-30 15h29.46.791160 +0530
54,0,54,np.float64(-0.25277777777777777),np.float64(0.007407407407407408),1,0,0,1.5375904,target',54,0,54,0,87.730939,,5,87.72271,87.730939,87.730939,0.011927,89.2603534,np.float64(-0.25277777777777777),np.float64(0.007407407407407408),1,0,0,1.5375904,target',3,1,2025-09-30_15h29.36.087,Exp Visual Search,,2025.1.1,60.00736891,2025-09-30 15h29.46.791160 +0530
55,0,55,np.float64(0.006481481481481481),np.float64(-0.3731481481481482),1,0,0,1.823511,target',55,0,55,0,89.2778709,,5,89.2699527,89.2778709,89.2778709,0.0094308,91.093526,np.float64(0.006481481481481481),np.float64(-0.3731481481481482),1,0,0,1.823511,target',3,1,2025-09-30_15h29.36.087,Exp Visual Search,,2025.1.1,60.00736891,2025-09-30 15h29.46.791160 +0530
57,0,57,np.float64(-0.21851851851851853),np.float64(0.08796296296296297),1,0,0,1.7731089,target',57,0,57,0,93.0622157,,5,93.0541549,93.0622157,93.0622157,0.0102712,94.8273591,np.float64(-0.21851851851851853),np.float64(0.08796296296296297),1,0,0,1.7731089,target',3,1,2025-09-30_15h29.36.087,Exp Visual Search,,2025.1.1,60.00736891,2025-09-30 15h29.46.791160 +0530
59,0,59,np.float64(0.4527777777777778),np.float64(0.10740740740740741),1,0,0,1.4741972,target',59,0,59,0,96.3620428,,5,96.3527308,96.3620428,96.3620428,0.0096478,97.8269949,np.float64(0.4527777777777778),np.float64(0.10740740740740741),1,0,0,1.4741972,target',3,1,2025-09-30_15h29.36.087,Exp Visual Search,,2025.1.1,60.00736891,2025-09-30 15h29.46.791160 +0530
62,0,62,np.float64(-0.47129629629629627),np.float64(-0.34074074074074073),1,0,0,1.590808,target',62,0,62,0,100.7633362,,5,100.7524342,100.7633362,100.7633362,0.0096787,102.3433172,np.float64(-0.47129629629629627),np.float64(-0.34074074074074073),1,0,0,1.590808,target',3,1,2025-09-30_15h29.36.087,Exp Visual Search,,2025.1.1,60.00736891,2025-09-30 15h29.46.791160 +0530
64,0,64,np.float64(-0.21574074074074073),np.float64(-0.39537037037037037),1,0,0,1.3736173,target',64,0,64,0,104.2946164,,5,104.2860589,104.2946164,104.2946164,0.0100264,105.6597325,np.float64(-0.21574074074074073),np.float64(-0.39537037037037037),1,0,0,1.3736173,target',3,1,2025-09-30_15h29.36.087,Exp Visual Search,,2025.1.1,60.00736891,2025-09-30 15h29.46.791160 +0530
68,0,68,np.float64(-0.41574074074074074),np.float64(0.3),1,0,0,2.236877,target',68,0,68,0,111.5130786,,5,111.5056409,111.5130786,111.5130786,0.0123117,113.7425756,np.float64(-0.41574074074074074),np.float64(0.3),1,0,0,2.236877,target',3,1,2025-09-30_15h29.36.087,Exp Visual Search,,2025.1.1,60.00736891,2025-09-30 15h29.46.791160 +0530
70,0,70,np.float64(-0.22592592592592592),np.float64(-0.46111111111111114),1,0,0,1.6564843,target',70,0,70,0,115.2287746,,5,115.2193656,115.2287746,115.2287746,0.0101199,116.8759409,np.float64(-0.22592592592592592),np.float64(-0.46111111111111114),1,0,0,1.6564843,target',3,1,2025-09-30_15h29.36.087,Exp Visual Search,,2025.1.1,60.00736891,2025-09-30 15h29.46.791160 +0530
74,0,74,np.float64(-0.012962962962962963),np.float64(-0.4787037037037037),1,0,0,1.8057429,target',74,0,74,0,122.962721,,5,122.9530213,122.962721,122.962721,0.0116141,124.7588373,np.float64(-0.012962962962962963),np.float64(-0.4787037037037037),1,0,0,1.8057429,target',3,1,2025-09-30_15h29.36.087,Exp Visual Search,,2025.1.1,60.00736891,2025-09-30 15h29.46.791160 +0530
75,0,75,np.float64(0.24259259259259258),np.float64(-0.08796296296296297),1,0,0,1.7888421,target',75,0,75,0,124.7775061,,5,124.7694276,124.7775061,124.7775061,0.0104479,126.5583267,np.float64(0.24259259259259258),np.float64(-0.08796296296296297),1,0,0,1.7888421,target',3,1,2025-09-30_15h29.36.087,Exp Visual Search,,2025.1.1,60.00736891,2025-09-30 15h29.46.791160 +0530
78,0,78,np.float64(-0.24722222222222223),np.float64(-0.4185185185185185),1,0,0,1.4186069,target',78,0,78,0,129.8834732,,5,129.8727192,129.8834732,129.8834732,0.0129656,131.2914214,np.float64(-0.24722222222222223),np.float64(-0.4185185185185185),1,0,0,1.4186069,target',3,1,2025-09-30_15h29.36.087,Exp Visual Search,,2025.1.1,60.00736891,2025-09-30 15h29.46.791160 +0530
79,0,79,np.float64(-0.18796296296296297),np.float64(-0.1388888888888889),1,0,0,1.1328859,target',79,0,79,0,131.3176218,,5,131.3082427,131.3176218,131.3176218,0.0166386,132.44119,np.float64(-0.18796296296296297),np.float64(-0.1388888888888889),1,0,0,1.1328859,target',3,1,2025-09-30_15h29.36.087,Exp Visual Search,,2025.1.1,60.00736891,2025-09-30 15h29.46.791160 +0530
84,0,84,np.float64(0.3824074074074074),np.float64(-0.02962962962962963),1,0,0,1.6215229,target',84,0,84,0,143.7613606,,5,143.7518985,143.7613606,143.7613606,0.0108416,145.3734776,np.float64(0.3824074074074074),np.float64(-0.02962962962962963),1,0,0,1.6215229,target',3,1,2025-09-30_15h29.36.087,Exp Visual Search,,2025.1.1,60.00736891,2025-09-30 15h29.46.791160 +0530
85,0,85,np.float64(-0.25925925925925924),np.float64(0.31666666666666665),1,0,0,1.9407171,target',85,0,85,0,145.3908256,,5,145.3830193,145.3908256,145.3908256,0.0094386,147.3237982,np.float64(-0.25925925925925924),np.float64(0.31666666666666665),1,0,0,1.9407171,target',3,1,2025-09-30_15h29.36.087,Exp Visual Search,,2025.1.1,60.00736891,2025-09-30 15h29.46.791160 +0530
88,0,88,np.float64(0.15185185185185185),np.float64(0.03425925925925926),1,0,0,1.6868914,target',88,0,88,0,152.5614936,,5,152.5535563,152.5614936,152.5614936,0.0134313,154.2405426,np.float64(0.15185185185185185),np.float64(0.03425925925925926),1,0,0,1.6868914,target',3,1,2025-09-30_15h29.36.087,Exp Visual Search,,2025.1.1,60.00736891,2025-09-30 15h29.46.791160 +0530
89,0,89,np.float64(0.3675925925925926),np.float64(-0.39814814814814814),1,0,0,1.4191404,target',89,0,89,0,154.2630229,,5,154.2541423,154.2630229,154.2630229,0.0134136,155.673356,np.float64(0.3675925925925926),np.float64(-0.39814814814814814),1,0,0,1.4191404,target',3,1,2025-09-30_15h29.36.087,Exp Visual Search,,2025.1.1,60.00736891,2025-09-30 15h29.46.791160 +0530
91,0,91,np.float64(-0.16111111111111112),np.float64(-0.2101851851851852),1,0,0,2.0217992,target',91,0,91,0,158.859379,,5,158.8510184,158.859379,158.859379,0.0111344,160.8728885,np.float64(-0.16111111111111112),np.float64(-0.2101851851851852),1,0,0,2.0217992,target',3,1,2025-09-30_15h29.36.087,Exp Visual Search,,2025.1.1,60.00736891,2025-09-30 15h29.46.791160 +0530
92,0,92,np.float64(-0.42592592592592593),np.float64(-0.16203703703703703),1,0,0,1.4399256,target',92,0,92,0,160.8904925,,5,160.8823122,160.8904925,160.8904925,0.0092793,162.3222883,np.float64(-0.42592592592592593),np.float64(-0.16203703703703703),1,0,0,1.4399256,target',3,1,2025-09-30_15h29.36.087,Exp Visual Search,,2025.1.1,60.00736891,2025-09-30 15h29.46.791160 +0530
93,0,93,np.float64(-0.3416666666666667),np.float64(0.20555555555555555),1,0,0,1.9566792,target',93,0,93,0,162.3413664,,5,162.3326096,162.3413664,162.3413664,0.0102174,164.2893557,np.float64(-0.3416666666666667),np.float64(0.20555555555555555),1,0,0,1.9566792,target',3,1,2025-09-30_15h29.36.087,Exp Visual Search,,2025.1.1,60.00736891,2025-09-30 15h29.46.791160 +0530
95,0,95,np.float64(0.14907407407407408),np.float64(-0.49444444444444446),1,0,0,1.6698201,None,95,0,95,0,167.6623027,,5,167.6521817,167.6623027,167.6623027,0.0126624,169.3220626,np.float64(0.14907407407407408),np.float64(-0.49444444444444446),1,0,0,1.6698201,None,3,1,2025-09-30_15h29.36.087,Exp Visual Search,,2025.1.1,60.00736891,2025-09-30 15h29.46.791160 +0530
97,0,97,np.float64(0.36666666666666664),np.float64(0.3527777777777778),1,0,0,1.9558274,target',97,0,97,0,172.5581509,,5,172.5493102,172.5581509,172.5581509,0.0104627,174.5051917,np.float64(0.36666666666666664),np.float64(0.3527777777777778),1,0,0,1.9558274,target',3,1,2025-09-30_15h29.36.087,Exp Visual Search,,2025.1.1,60.00736891,2025-09-30 15h29.46.791160 +0530
101,0,101,np.float64(-0.062037037037037036),np.float64(-0.3592592592592593),1,0,0,1.8547828,target',101,0,101,0,180.3604069,,5,180.3499572,180.3604069,180.3604069,0.0112393,182.204815,np.float64(-0.062037037037037036),np.float64(-0.3592592592592593),1,0,0,1.8547828,target',3,1,2025-09-30_15h29.36.087,Exp Visual Search,,2025.1.1,60.00736891,2025-09-30 15h29.46.791160 +0530
104,0,104,np.float64(-0.23981481481481481),np.float64(-0.11574074074074074),1,0,0,1.5430119,target',104,0,104,0,187.4928843,,5,187.4780605,187.4928843,187.4928843,0.0224029,189.0211076,np.float64(-0.23981481481481481),np.float64(-0.11574074074074074),1,0,0,1.5430119,target',3,1,2025-09-30_15h29.36.087,Exp Visual Search,,2025.1.1,60.00736891,2025-09-30 15h29.46.791160 +0530
106,0,106,np.float64(0.12129629629629629),np.float64(0.11944444444444445),1,0,0,1.5732771,target',106,0,106,0,190.6884418,,5,190.6808044,190.6884418,190.6884418,0.0095021,192.2541455,np.float64(0.12129629629629629),np.float64(0.11944444444444445),1,0,0,1.5732771,target',3,1,2025-09-30_15h29.36.087,Exp Visual Search,,2025.1.1,60.00736891,2025-09-30 15h29.46.791160 +0530
108,0,108,np.float64(0.11574074074074074),np.float64(-0.2324074074074074),1,0,0,1.8566986,target',108,0,108,0,193.7548624,,5,193.7472751,193.7548624,193.7548624,0.009945,195.6040303,np.float64(0.11574074074074074),np.float64(-0.2324074074074074),1,0,0,1.8566986,target',3,1,2025-09-30_15h29.36.087,Exp Visual Search,,2025.1.1,60.00736891,2025-09-30 15h29.46.791160 +0530
110,0,110,np.float64(-0.31203703703703706),np.float64(-0.13333333333333333),1,0,0,1.4066836,target',110,0,110,0,197.3709091,,5,197.3633593,197.3709091,197.3709091,0.0095713,198.7701038,np.float64(-0.31203703703703706),np.float64(-0.13333333333333333),1,0,0,1.4066836,target',3,1,2025-09-30_15h29.36.087,Exp Visual Search,,2025.1.1,60.00736891,2025-09-30 15h29.46.791160 +0530
111,0,111,np.float64(0.07037037037037037),np.float64(-0.04814814814814815),1,0,0,1.973831,target',111,0,111,0,198.7868501,,5,198.77951,198.7868501,198.7868501,0.0093065,200.7533968,np.float64(0.07037037037037037),np.float64(-0.04814814814814815),1,0,0,1.973831,target',3,1,2025-09-30_15h29.36.087,Exp Visual Search,,2025.1.1,60.00736891,2025-09-30 15h29.46.791160 +0530
112,0,112,np.float64(-0.28055555555555556),np.float64(-0.175),1,0,0,1.3238306,target',112,0,112,0,200.7717948,,5,200.7632665,200.7717948,200.7717948,0.009773,202.0871517,np.float64(-0.28055555555555556),np.float64(-0.175),1,0,0,1.3238306,target',3,1,2025-09-30_15h29.36.087,Exp Visual Search,,2025.1.1,60.00736891,2025-09-30 15h29.46.791160 +0530
113,0,113,np.float64(0.42407407407407405),np.float64(0.35),1,0,0,1.5384097,target',113,0,113,0,202.1076018,,5,202.0984562,202.1076018,202.1076018,0.01122,203.6369286,np.float64(0.42407407407407405),np.float64(0.35),1,0,0,1.5384097,target',3,1,2025-09-30_15h29.36.087,Exp Visual Search,,2025.1.1,60.00736891,2025-09-30 15h29.46.791160 +0530
120,0,120,np.float64(0.17037037037037037),np.float64(-0.31574074074074077),1,0,0,2.6551337,target',120,0,120,0,214.2756172,,5,214.2643427,214.2756172,214.2756172,0.0111919,216.9195294,np.float64(0.17037037037037037),np.float64(-0.31574074074074077),1,0,0,2.6551337,target',3,1,2025-09-30_15h29.36.087,Exp Visual Search,,2025.1.1,60.00736891,2025-09-30 15h29.46.791160 +0530
124,0,124,np.float64(-0.33240740740740743),np.float64(0.4444444444444444),1,0,0,1.3669531,target',124,0,124,0,222.8274606,,5,222.8190337,222.8274606,222.8274606,0.0160051,224.1860653,np.float64(-0.33240740740740743),np.float64(0.4444444444444444),1,0,0,1.3669531,target',3,1,2025-09-30_15h29.36.087,Exp Visual Search,,2025.1.1,60.00736891,2025-09-30 15h29.46.791160 +0530
129,0,129,np.float64(0.03148148148148148),np.float64(0.044444444444444446),1,0,0,1.6571326,target',129,0,129,0,230.0533612,,5,230.0449931,230.0533612,230.0533612,0.0095559,231.7022203,np.float64(0.03148148148148148),np.float64(0.044444444444444446),1,0,0,1.6571326,target',3,1,2025-09-30_15h29.36.087,Exp Visual Search,,2025.1.1,60.00736891,2025-09-30 15h29.46.791160 +0530
131,0,131,np.float64(-0.3074074074074074),np.float64(0.10185185185185185),1,0,0,1.3377113,target',131,0,131,0,232.905139,,5,232.897816,232.905139,232.905139,0.0127334,234.23562,np.float64(-0.3074074074074074),np.float64(0.10185185185185185),1,0,0,1.3377113,target',3,1,2025-09-30_15h29.36.087,Exp Visual Search,,2025.1.1,60.00736891,2025-09-30 15h29.46.791160 +0530
132,0,132,np.float64(0.3592592592592593),np.float64(0.2175925925925926),1,0,0,1.4366368,target',132,0,132,0,234.2557312,,5,234.2480896,234.2557312,234.2557312,0.0122974,235.684793,np.float64(0.3592592592592593),np.float64(0.2175925925925926),1,0,0,1.4366368,target',3,1,2025-09-30_15h29.36.087,Exp Visual Search,,2025.1.1,60.00736891,2025-09-30 15h29.46.791160 +0530
133,0,133,np.float64(0.337037037037037),np.float64(-0.49722222222222223),1,0,0,2.2555431,target',133,0,133,0,235.7035679,,5,235.6958876,235.7035679,235.7035679,0.0109484,237.9514987,np.float64(0.337037037037037),np.float64(-0.49722222222222223),1,0,0,2.2555431,target',3,1,2025-09-30_15h29.36.087,Exp Visual Search,,2025.1.1,60.00736891,2025-09-30 15h29.46.791160 +0530
134,0,134,np.float64(-0.005555555555555556),np.float64(0.46944444444444444),1,0,0,1.288801,target',134,0,134,0,237.9708876,,5,237.9626518,237.9708876,237.9708876,0.0110366,239.2515261,np.float64(-0.005555555555555556),np.float64(0.46944444444444444),1,0,0,1.288801,target',3,1,2025-09-30_15h29.36.087,Exp Visual Search,,2025.1.1,60.00736891,2025-09-30 15h29.46.791160 +0530
135,0,135,np.float64(-0.09444444444444444),np.float64(-0.05185185185185185),1,0,0,1.3069686,target',135,0,135,0,239.2692351,,5,239.2611563,239.2692351,239.2692351,0.0095346,240.568204,np.float64(-0.09444444444444444),np.float64(-0.05185185185185185),1,0,0,1.3069686,target',3,1,2025-09-30_15h29.36.087,Exp Visual Search,,2025.1.1,60.00736891,2025-09-30 15h29.46.791160 +0530
137,0,137,np.float64(-0.24074074074074073),np.float64(-0.12314814814814815),1,0,0,2.467358,target',137,0,137,0,241.5927412,,5,241.5840737,241.5927412,241.5927412,0.0161743,244.0515262,np.float64(-0.24074074074074073),np.float64(-0.12314814814814815),1,0,0,2.467358,target',3,1,2025-09-30_15h29.36.087,Exp Visual Search,,2025.1.1,60.00736891,2025-09-30 15h29.46.791160 +0530
138,0,138,np.float64(0.01574074074074074),np.float64(0.40370370370370373),1,0,0,1.5651204,target',138,0,138,0,244.0817253,,5,244.0700078,244.0817253,244.0817253,0.0183067,245.6352264,np.float64(0.01574074074074074),np.float64(0.40370370370370373),1,0,0,1.5651204,target',3,1,2025-09-30_15h29.36.087,Exp Visual Search,,2025.1.1,60.00736891,2025-09-30 15h29.46.791160 +0530
140,0,140,np.float64(-0.06944444444444445),np.float64(-0.09259259259259259),1,0,0,1.2822572,target',140,0,140,0,247.1428564,,5,247.1355341,247.1428564,247.1428564,0.0164148,248.4178865,np.float64(-0.06944444444444445),np.float64(-0.09259259259259259),1,0,0,1.2822572,target',3,1,2025-09-30_15h29.36.087,Exp Visual Search,,2025.1.1,60.00736891,2025-09-30 15h29.46.791160 +0530
143,0,143,np.float64(-0.3472222222222222),np.float64(-0.10277777777777777),1,0,0,1.6154434,target',143,0,143,0,252.5769972,,5,252.5689735,252.5769972,252.5769972,0.0174036,254.1844879,np.float64(-0.3472222222222222),np.float64(-0.10277777777777777),1,0,0,1.6154434,target',3,1,2025-09-30_15h29.36.087,Exp Visual Search,,2025.1.1,60.00736891,2025-09-30 15h29.46.791160 +0530
146,0,146,np.float64(0.225),np.float64(0.04259259259259259),1,0,0,1.001352,target',146,0,146,0,256.9094144,,5,256.8997228,256.9094144,256.9094144,0.015232,257.9011877,np.float64(0.225),np.float64(0.04259259259259259),1,0,0,1.001352,target',3,1,2025-09-30_15h29.36.087,Exp Visual Search,,2025.1.1,60.00736891,2025-09-30 15h29.46.791160 +0530
148,0,148,np.float64(0.10925925925925926),np.float64(0.4064814814814815),1,0,0,1.1540222,target',148,0,148,0,259.2398016,,5,259.2291166,259.2398016,259.2398016,0.0110024,260.383196,np.float64(0.10925925925925926),np.float64(0.4064814814814815),1,0,0,1.1540222,target',3,1,2025-09-30_15h29.36.087,Exp Visual Search,,2025.1.1,60.00736891,2025-09-30 15h29.46.791160 +0530
149,0,149,np.float64(-0.05648148148148148),np.float64(-0.27037037037037037),1,0,0,1.4847755,target',149,0,149,0,260.4104176,,5,260.3990958,260.4104176,260.4104176,0.0157984,261.8839691,np.float64(-0.05648148148148148),np.float64(-0.27037037037037037),1,0,0,1.4847755,target',3,1,2025-09-30_15h29.36.087,Exp Visual Search,,2025.1.1,60.00736891,2025-09-30 15h29.46.791160 +0530
150,0,150,np.float64(0.2222222222222222),np.float64(-0.47314814814814815),1,0,0,1.6147776,target',150,0,150,0,261.9121709,,5,261.902503,261.9121709,261.9121709,0.0183056,263.5173997,np.float64(0.2222222222222222),np.float64(-0.47314814814814815),1,0,0,1.6147776,target',3,1,2025-09-30_15h29.36.087,Exp Visual Search,,2025.1.1,60.00736891,2025-09-30 15h29.46.791160 +0530
151,0,151,np.float64(-0.38425925925925924),np.float64(-0.41759259259259257),1,0,0,1.4171329,target',151,0,151,0,263.5433837,,5,263.5334129,263.5433837,263.5433837,0.0157914,264.9506687,np.float64(-0.38425925925925924),np.float64(-0.41759259259259257),1,0,0,1.4171329,target',3,1,2025-09-30_15h29.36.087,Exp Visual Search,,2025.1.1,60.00736891,2025-09-30 15h29.46.791160 +0530
153,0,153,np.float64(0.14074074074074075),np.float64(-0.08518518518518518),1,0,0,1.2235086,target',153,0,153,0,266.870496,,5,266.8598472,266.870496,266.870496,0.009786,268.0834293,np.float64(0.14074074074074075),np.float64(-0.08518518518518518),1,0,0,1.2235086,target',3,1,2025-09-30_15h29.36.087,Exp Visual Search,,2025.1.1,60.00736891,2025-09-30 15h29.46.791160 +0530
155,0,155,np.float64(0.275),np.float64(-0.4740740740740741),1,0,0,2.2404049,target',155,0,155,0,270.6857242,,5,270.6764876,270.6857242,270.6857242,0.0104867,272.9170081,np.float64(0.275),np.float64(-0.4740740740740741),1,0,0,2.2404049,target',3,1,2025-09-30_15h29.36.087,Exp Visual Search,,2025.1.1,60.00736891,2025-09-30 15h29.46.791160 +0530
157,0,157,np.float64(0.5),np.float64(0.25462962962962965),1,0,0,1.5462157,target',157,0,157,0,274.8323935,,5,274.8201107,274.8323935,274.8323935,0.0196518,276.3664098,np.float64(0.5),np.float64(0.25462962962962965),1,0,0,1.5462157,target',3,1,2025-09-30_15h29.36.087,Exp Visual Search,,2025.1.1,60.00736891,2025-09-30 15h29.46.791160 +0530
159,0,159,np.float64(0.3712962962962963),np.float64(0.4666666666666667),1,0,0,1.2320296,target',159,0,159,0,278.0793676,,5,278.066841,278.0793676,278.0793676,0.0164671,279.2989181,np.float64(0.3712962962962963),np.float64(0.4666666666666667),1,0,0,1.2320296,target',3,1,2025-09-30_15h29.36.087,Exp Visual Search,,2025.1.1,60.00736891,2025-09-30 15h29.46.791160 +0530
161,0,161,np.float64(-0.37962962962962965),np.float64(0.32314814814814813),1,0,0,1.1637881,target',161,0,161,0,280.7117926,,5,280.702136,280.7117926,280.7117926,0.0190157,281.8660248,np.float64(-0.37962962962962965),np.float64(0.32314814814814813),1,0,0,1.1637881,target',3,1,2025-09-30_15h29.36.087,Exp Visual Search,,2025.1.1,60.00736891,2025-09-30 15h29.46.791160 +0530
164,0,164,np.float64(0.21481481481481482),np.float64(-0.24722222222222223),1,0,0,1.5222765,target',164,0,164,0,285.4679287,,5,285.4593375,285.4679287,285.4679287,0.0098798,286.9816674,np.float64(0.21481481481481482),np.float64(-0.24722222222222223),1,0,0,1.5222765,target',3,1,2025-09-30_15h29.36.087,Exp Visual Search,,2025.1.1,60.00736891,2025-09-30 15h29.46.791160 +0530
165,0,165,np.float64(-0.15555555555555556),np.float64(0.23981481481481481),1,0,0,1.1079146,target',165,0,165,0,286.9994701,,5,286.991002,286.9994701,286.9994701,0.0092319,288.099027,np.float64(-0.15555555555555556),np.float64(0.23981481481481481),1,0,0,1.1079146,target',3,1,2025-09-30_15h29.36.087,Exp Visual Search,,2025.1.1,60.00736891,2025-09-30 15h29.46.791160 +0530
166,0,166,np.float64(0.2712962962962963),np.float64(-0.028703703703703703),1,0,0,1.7379198,target',166,0,166,0,288.1198368,,5,288.1109898,288.1198368,288.1198368,0.0117543,289.8490089,np.float64(0.2712962962962963),np.float64(-0.028703703703703703),1,0,0,1.7379198,target',3,1,2025-09-30_15h29.36.087,Exp Visual Search,,2025.1.1,60.00736891,2025-09-30 15h29.46.791160 +0530
169,0,169,np.float64(-0.23703703703703705),np.float64(-0.3907407407407407),1,0,0,1.6036563,target',169,0,169,0,293.5196683,,5,293.511223,293.5196683,293.5196683,0.012493,295.1149476,np.float64(-0.23703703703703705),np.float64(-0.3907407407407407),1,0,0,1.6036563,target',3,1,2025-09-30_15h29.36.087,Exp Visual Search,,2025.1.1,60.00736891,2025-09-30 15h29.46.791160 +0530
174,0,174,np.float64(-0.2777777777777778),np.float64(-0.08148148148148149),1,0,0,1.8855097,target',174,0,174,0,302.5554331,,5,302.5452731,302.5554331,302.5554331,0.0139262,304.4308628,np.float64(-0.2777777777777778),np.float64(-0.08148148148148149),1,0,0,1.8855097,target',3,1,2025-09-30_15h29.36.087,Exp Visual Search,,2025.1.1,60.00736891,2025-09-30 15h29.46.791160 +0530
176,0,176,np.float64(0.28055555555555556),np.float64(-0.45185185185185184),1,0,0,1.5153738,target',176,0,176,0,306.1607384,,5,306.1491925,306.1607384,306.1607384,0.0177883,307.6646265,np.float64(0.28055555555555556),np.float64(-0.45185185185185184),1,0,0,1.5153738,target',3,1,2025-09-30_15h29.36.087,Exp Visual Search,,2025.1.1,60.00736891,2025-09-30 15h29.46.791160 +0530
177,0,177,np.float64(0.48703703703703705),np.float64(0.018518518518518517),1,0,0,1.6376052,target',177,0,177,0,307.6857018,,5,307.6758933,307.6857018,307.6857018,0.0111333,309.3135864,np.float64(0.48703703703703705),np.float64(0.018518518518518517),1,0,0,1.6376052,target',3,1,2025-09-30_15h29.36.087,Exp Visual Search,,2025.1.1,60.00736891,2025-09-30 15h29.46.791160 +0530
178,0,178,np.float64(-0.412962962962963),np.float64(0.2212962962962963),1,0,0,1.7137138,target',178,0,178,0,309.3433898,,5,309.3328127,309.3433898,309.3433898,0.0190587,311.0465677,np.float64(-0.412962962962963),np.float64(0.2212962962962963),1,0,0,1.7137138,target',3,1,2025-09-30_15h29.36.087,Exp Visual Search,,2025.1.1,60.00736891,2025-09-30 15h29.46.791160 +0530
179,0,179,np.float64(-0.07685185185185185),np.float64(0.33611111111111114),1,0,0,1.3044987,target',179,0,179,0,311.0686313,,5,311.059349,311.0686313,311.0686313,0.0126849,312.3639045,np.float64(-0.07685185185185185),np.float64(0.33611111111111114),1,0,0,1.3044987,target',3,1,2025-09-30_15h29.36.087,Exp Visual Search,,2025.1.1,60.00736891,2025-09-30 15h29.46.791160 +0530
184,0,184,np.float64(-0.1935185185185185),np.float64(-0.30092592592592593),1,0,0,2.180205,target',184,0,184,0,319.3804715,,5,319.3661009,319.3804715,319.3804715,0.0186784,321.5463503,np.float64(-0.1935185185185185),np.float64(-0.30092592592592593),1,0,0,2.180205,target',3,1,2025-09-30_15h29.36.087,Exp Visual Search,,2025.1.1,60.00736891,2025-09-30 15h29.46.791160 +0530
188,0,188,np.float64(0.08425925925925926),np.float64(0.39537037037037037),1,0,0,1.5544891,target',188,0,188,0,327.367113,,5,327.3579816,327.367113,327.367113,0.0112152,328.9125854,np.float64(0.08425925925925926),np.float64(0.39537037037037037),1,0,0,1.5544891,target',3,1,2025-09-30_15h29.36.087,Exp Visual Search,,2025.1.1,60.00736891,2025-09-30 15h29.46.791160 +0530
189,0,189,np.float64(-0.4148148148148148),np.float64(0.24351851851851852),1,0,0,1.5224615,target',189,0,189,0,328.931185,,5,328.9233452,328.931185,328.931185,0.0105917,330.4458841,np.float64(-0.4148148148148148),np.float64(0.24351851851851852),1,0,0,1.5224615,target',3,1,2025-09-30_15h29.36.087,Exp Visual Search,,2025.1.1,60.00736891,2025-09-30 15h29.46.791160 +0530
192,0,192,np.float64(0.41944444444444445),np.float64(0.3425925925925926),1,0,0,1.7782532,target',192,0,192,0,334.4764211,,5,334.4673012,334.4764211,334.4764211,0.0203308,336.2456081,np.float64(0.41944444444444445),np.float64(0.3425925925925926),1,0,0,1.7782532,target',3,1,2025-09-30_15h29.36.087,Exp Visual Search,,2025.1.1,60.00736891,2025-09-30 15h29.46.791160 +0530
193,0,193,np.float64(-0.19814814814814816),np.float64(-0.33796296296296297),1,0,0,1.5042332,target',193,0,193,0,336.2656251,,5,336.2577095,336.2656251,336.2656251,0.0119969,337.7620053,np.float64(-0.19814814814814816),np.float64(-0.33796296296296297),1,0,0,1.5042332,target',3,1,2025-09-30_15h29.36.087,Exp Visual Search,,2025.1.1,60.00736891,2025-09-30 15h29.46.791160 +0530
194,0,194,np.float64(-0.23703703703703705),np.float64(-0.05),1,0,0,1.5406219,target',194,0,194,0,337.7795594,,5,337.771964,337.7795594,337.7795594,0.0098063,339.3127304,np.float64(-0.23703703703703705),np.float64(-0.05),1,0,0,1.5406219,target',3,1,2025-09-30_15h29.36.087,Exp Visual Search,,2025.1.1,60.00736891,2025-09-30 15h29.46.791160 +0530
195,0,195,np.float64(0.41203703703703703),np.float64(0.3907407407407407),1,0,0,2.3137748,target',195,0,195,0,339.3434362,,5,339.3320968,339.3434362,339.3434362,0.0190682,341.6459772,np.float64(0.41203703703703703),np.float64(0.3907407407407407),1,0,0,2.3137748,target',3,1,2025-09-30_15h29.36.087,Exp Visual Search,,2025.1.1,60.00736891,2025-09-30 15h29.46.791160 +0530
196,0,196,np.float64(-0.14907407407407408),np.float64(0.41203703703703703),1,0,0,1.7172572,target',196,0,196,0,341.6693269,,5,341.6610758,341.6693269,341.6693269,0.0148662,343.3784075,np.float64(-0.14907407407407408),np.float64(0.41203703703703703),1,0,0,1.7172572,target',3,1,2025-09-30_15h29.36.087,Exp Visual Search,,2025.1.1,60.00736891,2025-09-30 15h29.46.791160 +0530
199,0,199,np.float64(-0.018518518518518517),np.float64(0.08796296296296297),1,0,0,1.6171161,target',199,0,199,0,346.9032621,,5,346.8948684,346.9032621,346.9032621,0.0159215,348.5120804,np.float64(-0.018518518518518517),np.float64(0.08796296296296297),1,0,0,1.6171161,target',3,1,2025-09-30_15h29.36.087,Exp Visual Search,,2025.1.1,60.00736891,2025-09-30 15h29.46.791160 +0530
1,0,1,np.float64(-0.06296296296296296),np.float64(-0.06944444444444445),1,0,0,1.4260775,target',1,0,1,0,1.2546276,,10,1.2398722,1.2546276,1.2546276,0.0233031,2.6660041,np.float64(-0.06296296296296296),np.float64(-0.06944444444444445),1,0,0,1.4260775,target',3,1,2025-09-30_15h29.36.087,Exp Visual Search,,2025.1.1,60.00736891,2025-09-30 15h29.46.791160 +0530
2,0,2,np.float64(-0.2388888888888889),np.float64(-0.48055555555555557),1,0,0,3.2295021,target',2,0,2,0,2.6965474,,10,2.6864712,2.6965474,2.6965474,0.020345,5.9160644,np.float64(-0.2388888888888889),np.float64(-0.48055555555555557),1,0,0,3.2295021,target',3,1,2025-09-30_15h29.36.087,Exp Visual Search,,2025.1.1,60.00736891,2025-09-30 15h29.46.791160 +0530
3,0,3,np.float64(-0.4064814814814815),np.float64(0.44907407407407407),1,0,0,2.0599865,target',3,0,3,0,5.9500712,,10,5.9389315,5.9500712,5.9500712,0.0226201,7.9989804,np.float64(-0.4064814814814815),np.float64(0.44907407407407407),1,0,0,2.0599865,target',3,1,2025-09-30_15h29.36.087,Exp Visual Search,,2025.1.1,60.00736891,2025-09-30 15h29.46.791160 +0530
5,0,5,np.float64(-0.387037037037037),np.float64(-0.26296296296296295),1,0,0,1.3813423,target',5,0,5,0,9.6600013,,10,9.6506063,9.6600013,9.6600013,0.0186922,11.0320531,np.float64(-0.387037037037037),np.float64(-0.26296296296296295),1,0,0,1.3813423,target',3,1,2025-09-30_15h29.36.087,Exp Visual Search,,2025.1.1,60.00736891,2025-09-30 15h29.46.791160 +0530
9,0,9,np.float64(0.39537037037037037),np.float64(-0.14537037037037037),1,0,0,2.1924868,target',9,0,9,0,15.8815636,,10,15.8720521,15.8815636,15.8815636,0.0233894,18.0645842,np.float64(0.39537037037037037),np.float64(-0.14537037037037037),1,0,0,2.1924868,target',3,1,2025-09-30_15h29.36.087,Exp Visual Search,,2025.1.1,60.00736891,2025-09-30 15h29.46.791160 +0530
17,0,17,np.float64(-0.44166666666666665),np.float64(0.15),1,0,0,1.6770492,target',17,0,17,0,29.3161076,,10,29.3031275,29.3161076,29.3161076,0.0224629,30.9802309,np.float64(-0.44166666666666665),np.float64(0.15),1,0,0,1.6770492,target',3,1,2025-09-30_15h29.36.087,Exp Visual Search,,2025.1.1,60.00736891,2025-09-30 15h29.46.791160 +0530
18,0,18,np.float64(-0.4462962962962963),np.float64(0.2953703703703704),1,0,0,1.6779266,target',18,0,18,0,31.0173598,,10,31.0027046,31.0173598,31.0173598,0.0223477,32.6806829,np.float64(-0.4462962962962963),np.float64(0.2953703703703704),1,0,0,1.6779266,target',3,1,2025-09-30_15h29.36.087,Exp Visual Search,,2025.1.1,60.00736891,2025-09-30 15h29.46.791160 +0530
21,0,21,np.float64(-0.27314814814814814),np.float64(0.2851851851851852),1,0,0,2.2264034,None,21,0,21,0,36.4309807,,10,36.4201308,36.4309807,36.4309807,0.0220448,38.6465912,np.float64(-0.27314814814814814),np.float64(0.2851851851851852),1,0,0,2.2264034,None,3,1,2025-09-30_15h29.36.087,Exp Visual Search,,2025.1.1,60.00736891,2025-09-30 15h29.46.791160 +0530
23,0,23,np.float64(-0.11666666666666667),np.float64(-0.4185185185185185),1,0,0,2.8805364,target',23,0,23,0,40.6100819,,10,40.5990942,40.6100819,40.6100819,0.0190462,43.4796826,np.float64(-0.11666666666666667),np.float64(-0.4185185185185185),1,0,0,2.8805364,target',3,1,2025-09-30_15h29.36.087,Exp Visual Search,,2025.1.1,60.00736891,2025-09-30 15h29.46.791160 +0530
25,0,25,np.float64(0.31296296296296294),np.float64(0.24814814814814815),1,0,0,2.1220605,target',25,0,25,0,44.79089,,10,44.7744736,44.79089,44.79089,0.027653,46.8966152,np.float64(0.31296296296296294),np.float64(0.24814814814814815),1,0,0,2.1220605,target',3,1,2025-09-30_15h29.36.087,Exp Visual Search,,2025.1.1,60.00736891,2025-09-30 15h29.46.791160 +0530
27,0,27,np.float64(0.2351851851851852),np.float64(0.22777777777777777),1,0,0,1.1628611,target',27,0,27,0,48.2269966,,10,48.216578,48.2269966,48.2269966,0.0198967,49.3794918,np.float64(0.2351851851851852),np.float64(0.22777777777777777),1,0,0,1.1628611,target',3,1,2025-09-30_15h29.36.087,Exp Visual Search,,2025.1.1,60.00736891,2025-09-30 15h29.46.791160 +0530
28,0,28,np.float64(0.13425925925925927),np.float64(-0.1824074074074074),1,0,0,1.8977679,target',28,0,28,0,49.410654,,10,49.3987468,49.410654,49.410654,0.0191291,51.2965824,np.float64(0.13425925925925927),np.float64(-0.1824074074074074),1,0,0,1.8977679,target',3,1,2025-09-30_15h29.36.087,Exp Visual Search,,2025.1.1,60.00736891,2025-09-30 15h29.46.791160 +0530
30,0,30,np.float64(0.1935185185185185),np.float64(0.14166666666666666),1,0,0,1.2612114,None,30,0,30,0,52.6460416,,10,52.6350032,52.6460416,52.6460416,0.0213892,53.8962844,np.float64(0.1935185185185185),np.float64(0.14166666666666666),1,0,0,1.2612114,None,3,1,2025-09-30_15h29.36.087,Exp Visual Search,,2025.1.1,60.00736891,2025-09-30 15h29.46.791160 +0530
31,0,31,np.float64(-0.06481481481481481),np.float64(-0.46574074074074073),1,0,0,1.8804905,target',31,0,31,0,53.9262925,,10,53.9155237,53.9262925,53.9262925,0.0190742,55.7960901,np.float64(-0.06481481481481481),np.float64(-0.46574074074074073),1,0,0,1.8804905,target',3,1,2025-09-30_15h29.36.087,Exp Visual Search,,2025.1.1,60.00736891,2025-09-30 15h29.46.791160 +0530
33,0,33,np.float64(0.34814814814814815),np.float64(0.33240740740740743),1,0,0,1.2937674,None,33,0,33,0,56.9649838,,10,56.9513309,56.9649838,56.9649838,0.0220179,58.24516,np.float64(0.34814814814814815),np.float64(0.33240740740740743),1,0,0,1.2937674,None,3,1,2025-09-30_15h29.36.087,Exp Visual Search,,2025.1.1,60.00736891,2025-09-30 15h29.46.791160 +0530
34,0,34,np.float64(-0.2351851851851852),np.float64(0.3333333333333333),1,0,0,1.8063067,target',34,0,34,0,58.2869683,,10,58.2726739,58.2869683,58.2869683,0.0273818,60.0790566,np.float64(-0.2351851851851852),np.float64(0.3333333333333333),1,0,0,1.8063067,target',3,1,2025-09-30_15h29.36.087,Exp Visual Search,,2025.1.1,60.00736891,2025-09-30 15h29.46.791160 +0530
42,0,42,np.float64(-0.37222222222222223),np.float64(0.24351851851851852),1,0,0,1.3782484,target',42,0,42,0,69.5457001,,10,69.5336356,69.5457001,69.5457001,0.0220319,70.911958,np.float64(-0.37222222222222223),np.float64(0.24351851851851852),1,0,0,1.3782484,target',3,1,2025-09-30_15h29.36.087,Exp Visual Search,,2025.1.1,60.00736891,2025-09-30 15h29.46.791160 +0530
43,0,43,np.float64(-0.05092592592592592),np.float64(0.10740740740740741),1,0,0,1.3113963,target',43,0,43,0,70.944579,,10,70.9335632,70.944579,70.944579,0.0213111,72.2450576,np.float64(-0.05092592592592592),np.float64(0.10740740740740741),1,0,0,1.3113963,target',3,1,2025-09-30_15h29.36.087,Exp Visual Search,,2025.1.1,60.00736891,2025-09-30 15h29.46.791160 +0530
47,0,47,np.float64(-0.362962962962963),np.float64(-0.45185185185185184),1,0,0,2.6481124,None,47,0,47,0,76.9251903,,10,76.9133326,76.9251903,76.9251903,0.0188828,79.5615453,np.float64(-0.362962962962963),np.float64(-0.45185185185185184),1,0,0,2.6481124,None,3,1,2025-09-30_15h29.36.087,Exp Visual Search,,2025.1.1,60.00736891,2025-09-30 15h29.46.791160 +0530
49,0,49,np.float64(-0.1527777777777778),np.float64(-0.3388888888888889),1,0,0,1.4972719,target',49,0,49,0,81.1777334,,10,81.1635477,81.1777334,81.1777334,0.0193258,82.6608756,np.float64(-0.1527777777777778),np.float64(-0.3388888888888889),1,0,0,1.4972719,target',3,1,2025-09-30_15h29.36.087,Exp Visual Search,,2025.1.1,60.00736891,2025-09-30 15h29.46.791160 +0530
50,0,50,np.float64(0.21851851851851853),np.float64(-0.3138888888888889),1,0,0,1.4146557,target',50,0,50,0,82.6928617,,10,82.6801384,82.6928617,82.6928617,0.0190998,84.0949108,np.float64(0.21851851851851853),np.float64(-0.3138888888888889),1,0,0,1.4146557,target',3,1,2025-09-30_15h29.36.087,Exp Visual Search,,2025.1.1,60.00736891,2025-09-30 15h29.46.791160 +0530
51,0,51,np.float64(-0.3787037037037037),np.float64(-0.4648148148148148),1,0,0,1.8944829,target',51,0,51,0,84.1271572,,10,84.115884,84.1271572,84.1271572,0.0206643,86.0104219,np.float64(-0.3787037037037037),np.float64(-0.4648148148148148),1,0,0,1.8944829,target',3,1,2025-09-30_15h29.36.087,Exp Visual Search,,2025.1.1,60.00736891,2025-09-30 15h29.46.791160 +0530
56,0,56,np.float64(0.45555555555555555),np.float64(-0.40555555555555556),1,0,0,1.930107,target',56,0,56,0,91.1243375,,10,91.1135192,91.1243375,91.1243375,0.0198861,93.0436976,np.float64(0.45555555555555555),np.float64(-0.40555555555555556),1,0,0,1.930107,target',3,1,2025-09-30_15h29.36.087,Exp Visual Search,,2025.1.1,60.00736891,2025-09-30 15h29.46.791160 +0530
58,0,58,np.float64(-0.34814814814814815),np.float64(-0.12222222222222222),1,0,0,1.4891003,target',58,0,58,0,94.8646615,,10,94.8538259,94.8646615,94.8646615,0.0262705,96.342974,np.float64(-0.34814814814814815),np.float64(-0.12222222222222222),1,0,0,1.4891003,target',3,1,2025-09-30_15h29.36.087,Exp Visual Search,,2025.1.1,60.00736891,2025-09-30 15h29.46.791160 +0530
60,0,60,np.float64(0.08425925925925926),np.float64(0.26666666666666666),1,0,0,1.5285726,target',60,0,60,0,97.8600383,,10,97.8478812,97.8600383,97.8600383,0.0207612,99.3765063,np.float64(0.08425925925925926),np.float64(0.26666666666666666),1,0,0,1.5285726,target',3,1,2025-09-30_15h29.36.087,Exp Visual Search,,2025.1.1,60.00736891,2025-09-30 15h29.46.791160 +0530
61,0,61,np.float64(0.06111111111111111),np.float64(-0.24722222222222223),1,0,0,1.3461771,None,61,0,61,0,99.4071654,,10,99.396402,99.4071654,99.4071654,0.0197806,100.7426346,np.float64(0.06111111111111111),np.float64(-0.24722222222222223),1,0,0,1.3461771,None,3,1,2025-09-30_15h29.36.087,Exp Visual Search,,2025.1.1,60.00736891,2025-09-30 15h29.46.791160 +0530
63,0,63,np.float64(0.08796296296296297),np.float64(0.37962962962962965),1,0,0,1.9129814,target',63,0,63,0,102.3779467,,10,102.362837,102.3779467,102.3779467,0.0193719,104.2758679,np.float64(0.08796296296296297),np.float64(0.37962962962962965),1,0,0,1.9129814,target',3,1,2025-09-30_15h29.36.087,Exp Visual Search,,2025.1.1,60.00736891,2025-09-30 15h29.46.791160 +0530
65,0,65,np.float64(0.21574074074074073),np.float64(-0.24166666666666667),1,0,0,1.5634966,None,65,0,65,0,105.6899964,,10,105.6793548,105.6899964,105.6899964,0.0195223,107.242959,np.float64(0.21574074074074073),np.float64(-0.24166666666666667),1,0,0,1.5634966,None,3,1,2025-09-30_15h29.36.087,Exp Visual Search,,2025.1.1,60.00736891,2025-09-30 15h29.46.791160 +0530
66,0,66,np.float64(0.37407407407407406),np.float64(0.20092592592592592),1,0,0,1.3119734,target',66,0,66,0,107.2797954,,10,107.2639722,107.2797954,107.2797954,0.020778,108.5760011,np.float64(0.37407407407407406),np.float64(0.20092592592592592),1,0,0,1.3119734,target',3,1,2025-09-30_15h29.36.087,Exp Visual Search,,2025.1.1,60.00736891,2025-09-30 15h29.46.791160 +0530
67,0,67,np.float64(-0.025925925925925925),np.float64(-0.2851851851851852),1,0,0,2.8970164,target',67,0,67,0,108.6098455,,10,108.5959874,108.6098455,108.6098455,0.0198687,111.4930986,np.float64(-0.025925925925925925),np.float64(-0.2851851851851852),1,0,0,2.8970164,target',3,1,2025-09-30_15h29.36.087,Exp Visual Search,,2025.1.1,60.00736891,2025-09-30 15h29.46.791160 +0530
69,0,69,np.float64(0.43425925925925923),np.float64(-0.03333333333333333),1,0,0,1.4415213,target',69,0,69,0,113.7826771,,10,113.7675133,113.7826771,113.7826771,0.0248137,115.2091092,np.float64(0.43425925925925923),np.float64(-0.03333333333333333),1,0,0,1.4415213,target',3,1,2025-09-30_15h29.36.087,Exp Visual Search,,2025.1.1,60.00736891,2025-09-30 15h29.46.791160 +0530
71,0,71,np.float64(0.24259259259259258),np.float64(-0.4083333333333333),1,0,0,2.3616485,target',71,0,71,0,116.9066918,,10,116.8968028,116.9066918,116.9066918,0.0206872,119.2585136,np.float64(0.24259259259259258),np.float64(-0.4083333333333333),1,0,0,2.3616485,target',3,1,2025-09-30_15h29.36.087,Exp Visual Search,,2025.1.1,60.00736891,2025-09-30 15h29.46.791160 +0530
72,0,72,np.float64(0.03148148148148148),np.float64(0.2101851851851852),1,0,0,1.5130563,target',72,0,72,0,119.2918758,,10,119.2790332,119.2918758,119.2918758,0.020374,120.7921484,np.float64(0.03148148148148148),np.float64(0.2101851851851852),1,0,0,1.5130563,target',3,1,2025-09-30_15h29.36.087,Exp Visual Search,,2025.1.1,60.00736891,2025-09-30 15h29.46.791160 +0530
73,0,73,np.float64(-0.4564814814814815),np.float64(-0.13055555555555556),1,0,0,2.1256498,target',73,0,73,0,120.832219,,10,120.8155539,120.832219,120.832219,0.0232752,122.9412616,np.float64(-0.4564814814814815),np.float64(-0.13055555555555556),1,0,0,2.1256498,target',3,1,2025-09-30_15h29.36.087,Exp Visual Search,,2025.1.1,60.00736891,2025-09-30 15h29.46.791160 +0530
76,0,76,np.float64(0.2898148148148148),np.float64(0.43148148148148147),1,0,0,1.6259577,target',76,0,76,0,126.5982797,,10,126.5823117,126.5982797,126.5982797,0.0238305,128.2083485,np.float64(0.2898148148148148),np.float64(0.43148148148148147),1,0,0,1.6259577,target',3,1,2025-09-30_15h29.36.087,Exp Visual Search,,2025.1.1,60.00736891,2025-09-30 15h29.46.791160 +0530
77,0,77,np.float64(-0.49907407407407406),np.float64(0.15),1,0,0,1.6291694,target',77,0,77,0,128.2424003,,10,128.2300666,128.2424003,128.2424003,0.0215287,129.8593733,np.float64(-0.49907407407407406),np.float64(0.15),1,0,0,1.6291694,target',3,1,2025-09-30_15h29.36.087,Exp Visual Search,,2025.1.1,60.00736891,2025-09-30 15h29.46.791160 +0530
80,0,80,np.float64(-0.2777777777777778),np.float64(-0.47962962962962963),1,0,0,2.8104259,target',80,0,80,0,132.4737176,,10,132.4637925,132.4737176,132.4737176,0.0224723,135.2742812,np.float64(-0.2777777777777778),np.float64(-0.47962962962962963),1,0,0,2.8104259,target',3,1,2025-09-30_15h29.36.087,Exp Visual Search,,2025.1.1,60.00736891,2025-09-30 15h29.46.791160 +0530
81,0,81,np.float64(0.10555555555555556),np.float64(0.2111111111111111),1,0,0,2.5136254,target',81,0,81,0,135.3080813,,10,135.294099,135.3080813,135.3080813,0.0196657,137.8077832,np.float64(0.10555555555555556),np.float64(0.2111111111111111),1,0,0,2.5136254,target',3,1,2025-09-30_15h29.36.087,Exp Visual Search,,2025.1.1,60.00736891,2025-09-30 15h29.46.791160 +0530
82,0,82,np.float64(0.3314814814814815),np.float64(0.2824074074074074),1,0,0,3.4958857,target',82,0,82,0,137.8440175,,10,137.8283577,137.8440175,137.8440175,0.0204482,141.3243251,np.float64(0.3314814814814815),np.float64(0.2824074074074074),1,0,0,3.4958857,target',3,1,2025-09-30_15h29.36.087,Exp Visual Search,,2025.1.1,60.00736891,2025-09-30 15h29.46.791160 +0530
83,0,83,np.float64(-0.22685185185185186),np.float64(0.3611111111111111),1,0,0,2.3957637,target',83,0,83,0,141.3565264,,10,141.3449993,141.3565264,141.3565264,0.0204363,143.740853,np.float64(-0.22685185185185186),np.float64(0.3611111111111111),1,0,0,2.3957637,target',3,1,2025-09-30_15h29.36.087,Exp Visual Search,,2025.1.1,60.00736891,2025-09-30 15h29.46.791160 +0530
86,0,86,np.float64(0.16111111111111112),np.float64(0.49166666666666664),1,0,0,3.5940764,target',86,0,86,0,147.360283,,10,147.3464871,147.360283,147.360283,0.0225805,150.9406513,np.float64(0.16111111111111112),np.float64(0.49166666666666664),1,0,0,3.5940764,target',3,1,2025-09-30_15h29.36.087,Exp Visual Search,,2025.1.1,60.00736891,2025-09-30 15h29.46.791160 +0530
87,0,87,np.float64(-0.17407407407407408),np.float64(-0.3435185185185185),1,0,0,1.5767129,target',87,0,87,0,150.9758497,,10,150.9632338,150.9758497,150.9758497,0.0223662,152.5400048,np.float64(-0.17407407407407408),np.float64(-0.3435185185185185),1,0,0,1.5767129,target',3,1,2025-09-30_15h29.36.087,Exp Visual Search,,2025.1.1,60.00736891,2025-09-30 15h29.46.791160 +0530
90,0,90,np.float64(0.2712962962962963),np.float64(0.48148148148148145),1,0,0,3.1372079,target',90,0,90,0,155.7125065,,10,155.7024441,155.7125065,155.7125065,0.0289499,158.8397088,np.float64(0.2712962962962963),np.float64(0.48148148148148145),1,0,0,3.1372079,target',3,1,2025-09-30_15h29.36.087,Exp Visual Search,,2025.1.1,60.00736891,2025-09-30 15h29.46.791160 +0530
94,0,94,np.float64(-0.33611111111111114),np.float64(-0.24351851851851852),1,0,0,3.3260132,target',94,0,94,0,164.3290582,,10,164.3131821,164.3290582,164.3290582,0.0237061,167.6392861,np.float64(-0.33611111111111114),np.float64(-0.24351851851851852),1,0,0,3.3260132,target',3,1,2025-09-30_15h29.36.087,Exp Visual Search,,2025.1.1,60.00736891,2025-09-30 15h29.46.791160 +0530
96,0,96,np.float64(-0.42592592592592593),np.float64(-0.4101851851851852),1,0,0,3.1959504,target',96,0,96,0,169.3563907,,10,169.3426994,169.3563907,169.3563907,0.0205373,172.5387047,np.float64(-0.42592592592592593),np.float64(-0.4101851851851852),1,0,0,3.1959504,target',3,1,2025-09-30_15h29.36.087,Exp Visual Search,,2025.1.1,60.00736891,2025-09-30 15h29.46.791160 +0530
98,0,98,np.float64(0.13425925925925927),np.float64(0.3194444444444444),1,0,0,1.9310111,target',98,0,98,0,174.5354693,,10,174.5245116,174.5354693,174.5354693,0.0192233,176.4556043,np.float64(0.13425925925925927),np.float64(0.3194444444444444),1,0,0,1.9310111,target',3,1,2025-09-30_15h29.36.087,Exp Visual Search,,2025.1.1,60.00736891,2025-09-30 15h29.46.791160 +0530
99,0,99,np.float64(-0.31666666666666665),np.float64(-0.23703703703703705),1,0,0,2.3455191,target',99,0,99,0,176.4881195,,10,176.4760869,176.4881195,176.4881195,0.0203176,178.8216851,np.float64(-0.31666666666666665),np.float64(-0.23703703703703705),1,0,0,2.3455191,target',3,1,2025-09-30_15h29.36.087,Exp Visual Search,,2025.1.1,60.00736891,2025-09-30 15h29.46.791160 +0530
100,0,100,np.float64(0.0712962962962963),np.float64(-0.24444444444444444),1,0,0,1.4895521,target',100,0,100,0,178.862194,,10,178.8488837,178.862194,178.862194,0.0270144,180.3385431,np.float64(0.0712962962962963),np.float64(-0.24444444444444444),1,0,0,1.4895521,target',3,1,2025-09-30_15h29.36.087,Exp Visual Search,,2025.1.1,60.00736891,2025-09-30 15h29.46.791160 +0530
102,0,102,np.float64(0.04537037037037037),np.float64(0.05740740740740741),1,0,0,2.9277291,target',102,0,102,0,182.2372616,,10,182.2268053,182.2372616,182.2372616,0.0218381,185.1545883,np.float64(0.04537037037037037),np.float64(0.05740740740740741),1,0,0,2.9277291,target',3,1,2025-09-30_15h29.36.087,Exp Visual Search,,2025.1.1,60.00736891,2025-09-30 15h29.46.791160 +0530
103,0,103,np.float64(-0.41944444444444445),np.float64(0.10092592592592593),1,0,0,2.2794992,target',103,0,103,0,185.1894235,,10,185.1758529,185.1894235,185.1894235,0.0211404,187.4554692,np.float64(-0.41944444444444445),np.float64(0.10092592592592593),1,0,0,2.2794992,target',3,1,2025-09-30_15h29.36.087,Exp Visual Search,,2025.1.1,60.00736891,2025-09-30 15h29.46.791160 +0530
105,0,105,np.float64(0.14444444444444443),np.float64(0.2462962962962963),1,0,0,1.6287292,target',105,0,105,0,189.0528068,,10,189.0423892,189.0528068,189.0528068,0.0211899,190.6711672,np.float64(0.14444444444444443),np.float64(0.2462962962962963),1,0,0,1.6287292,target',3,1,2025-09-30_15h29.36.087,Exp Visual Search,,2025.1.1,60.00736891,2025-09-30 15h29.46.791160 +0530
107,0,107,np.float64(-0.06018518518518518),np.float64(0.27314814814814814),1,0,0,1.4647885,target',107,0,107,0,192.2830426,,10,192.272335,192.2830426,192.2830426,0.0180735,193.7371904,np.float64(-0.06018518518518518),np.float64(0.27314814814814814),1,0,0,1.4647885,target',3,1,2025-09-30_15h29.36.087,Exp Visual Search,,2025.1.1,60.00736891,2025-09-30 15h29.46.791160 +0530
109,0,109,np.float64(-0.09722222222222222),np.float64(-0.16574074074074074),1,0,0,1.7314595,target',109,0,109,0,195.6321098,,10,195.6221655,195.6321098,195.6321098,0.0180371,197.3536751,np.float64(-0.09722222222222222),np.float64(-0.16574074074074074),1,0,0,1.7314595,target',3,1,2025-09-30_15h29.36.087,Exp Visual Search,,2025.1.1,60.00736891,2025-09-30 15h29.46.791160 +0530
114,0,114,np.float64(0.046296296296296294),np.float64(0.3111111111111111),1,0,0,1.4434268,target',114,0,114,0,203.671564,,10,203.6600973,203.671564,203.671564,0.0230542,205.1035796,np.float64(0.046296296296296294),np.float64(0.3111111111111111),1,0,0,1.4434268,target',3,1,2025-09-30_15h29.36.087,Exp Visual Search,,2025.1.1,60.00736891,2025-09-30 15h29.46.791160 +0530
115,0,115,np.float64(0.32037037037037036),np.float64(0.4527777777777778),1,0,0,1.3642773,target',115,0,115,0,205.1349345,,10,205.1229685,205.1349345,205.1349345,0.0192628,206.4873346,np.float64(0.32037037037037036),np.float64(0.4527777777777778),1,0,0,1.3642773,target',3,1,2025-09-30_15h29.36.087,Exp Visual Search,,2025.1.1,60.00736891,2025-09-30 15h29.46.791160 +0530
116,0,116,np.float64(-0.425),np.float64(0.4842592592592593),1,0,0,2.9133935,None,116,0,116,0,206.5180569,,10,206.507139,206.5180569,206.5180569,0.0196372,209.4206344,np.float64(-0.425),np.float64(0.4842592592592593),1,0,0,2.9133935,None,3,1,2025-09-30_15h29.36.087,Exp Visual Search,,2025.1.1,60.00736891,2025-09-30 15h29.46.791160 +0530
117,0,117,np.float64(0.3509259259259259),np.float64(-0.175),1,0,0,1.8450196,target',117,0,117,0,209.4526731,,10,209.4417233,209.4526731,209.4526731,0.0208142,211.2868124,np.float64(0.3509259259259259),np.float64(-0.175),1,0,0,1.8450196,target',3,1,2025-09-30_15h29.36.087,Exp Visual Search,,2025.1.1,60.00736891,2025-09-30 15h29.46.791160 +0530
118,0,118,np.float64(0.03981481481481482),np.float64(-0.15),1,0,0,1.3799852,target',118,0,118,0,211.3180574,,10,211.3065378,211.3180574,211.3180574,0.0195749,212.6865979,np.float64(0.03981481481481482),np.float64(-0.15),1,0,0,1.3799852,target',3,1,2025-09-30_15h29.36.087,Exp Visual Search,,2025.1.1,60.00736891,2025-09-30 15h29.46.791160 +0530
119,0,119,np.float64(-0.17685185185185184),np.float64(0.16296296296296298),1,0,0,1.5399922,target',119,0,119,0,212.7244867,,10,212.7128789,212.7244867,212.7244867,0.0261294,214.2529632,np.float64(-0.17685185185185184),np.float64(0.16296296296296298),1,0,0,1.5399922,target',3,1,2025-09-30_15h29.36.087,Exp Visual Search,,2025.1.1,60.00736891,2025-09-30 15h29.46.791160 +0530
121,0,121,np.float64(-0.4324074074074074),np.float64(0.19722222222222222),1,0,0,1.4807421,target',121,0,121,0,216.9539635,,10,216.939124,216.9539635,216.9539635,0.019507,218.4199353,np.float64(-0.4324074074074074),np.float64(0.19722222222222222),1,0,0,1.4807421,target',3,1,2025-09-30_15h29.36.087,Exp Visual Search,,2025.1.1,60.00736891,2025-09-30 15h29.46.791160 +0530
122,0,122,np.float64(-0.04722222222222222),np.float64(-0.3527777777777778),1,0,0,2.9645743,target',122,0,122,0,218.4495208,,10,218.43846,218.4495208,218.4495208,0.0183685,221.4031654,np.float64(-0.04722222222222222),np.float64(-0.3527777777777778),1,0,0,2.9645743,target',3,1,2025-09-30_15h29.36.087,Exp Visual Search,,2025.1.1,60.00736891,2025-09-30 15h29.46.791160 +0530
123,0,123,np.float64(-0.17222222222222222),np.float64(-0.012962962962962963),1,0,0,1.3589853,target',123,0,123,0,221.4656499,,10,221.4437287,221.4656499,221.4656499,0.0402561,222.8028065,np.float64(-0.17222222222222222),np.float64(-0.012962962962962963),1,0,0,1.3589853,target',3,1,2025-09-30_15h29.36.087,Exp Visual Search,,2025.1.1,60.00736891,2025-09-30 15h29.46.791160 +0530
125,0,125,np.float64(-0.4861111111111111),np.float64(-0.08148148148148149),1,0,0,1.247021,target',125,0,125,0,224.2177051,,10,224.2049694,224.2177051,224.2177051,0.01875,225.4520594,np.float64(-0.4861111111111111),np.float64(-0.08148148148148149),1,0,0,1.247021,target',3,1,2025-09-30_15h29.36.087,Exp Visual Search,,2025.1.1,60.00736891,2025-09-30 15h29.46.791160 +0530
126,0,126,np.float64(-0.4842592592592593),np.float64(-0.4527777777777778),1,0,0,1.8447842,target',126,0,126,0,225.4840574,,10,225.4744585,225.4840574,225.4840574,0.0221647,227.3193883,np.float64(-0.4842592592592593),np.float64(-0.4527777777777778),1,0,0,1.8447842,target',3,1,2025-09-30_15h29.36.087,Exp Visual Search,,2025.1.1,60.00736891,2025-09-30 15h29.46.791160 +0530
127,0,127,np.float64(-0.19537037037037036),np.float64(0.25092592592592594),1,0,0,1.3211861,target',127,0,127,0,227.3591153,,10,227.3481131,227.3591153,227.3591153,0.02838,228.6693883,np.float64(-0.19537037037037036),np.float64(0.25092592592592594),1,0,0,1.3211861,target',3,1,2025-09-30_15h29.36.087,Exp Visual Search,,2025.1.1,60.00736891,2025-09-30 15h29.46.791160 +0530
128,0,128,np.float64(0.12777777777777777),np.float64(0.28888888888888886),1,0,0,1.3466442,target',128,0,128,0,228.6980569,,10,228.688616,228.6980569,228.6980569,0.0191034,230.035319,np.float64(0.12777777777777777),np.float64(0.28888888888888886),1,0,0,1.3466442,target',3,1,2025-09-30_15h29.36.087,Exp Visual Search,,2025.1.1,60.00736891,2025-09-30 15h29.46.791160 +0530
130,0,130,np.float64(0.13148148148148148),np.float64(-0.11851851851851852),1,0,0,1.1449126,target',130,0,130,0,231.7546773,,10,231.7400007,231.7546773,231.7546773,0.0376245,232.8849526,np.float64(0.13148148148148148),np.float64(-0.11851851851851852),1,0,0,1.1449126,target',3,1,2025-09-30_15h29.36.087,Exp Visual Search,,2025.1.1,60.00736891,2025-09-30 15h29.46.791160 +0530
136,0,136,np.float64(-0.13240740740740742),np.float64(-0.11018518518518519),1,0,0,0.9820452,target',136,0,136,0,240.5985479,,10,240.5857013,240.5985479,240.5985479,0.0173892,241.5677973,np.float64(-0.13240740740740742),np.float64(-0.11018518518518519),1,0,0,0.9820452,target',3,1,2025-09-30_15h29.36.087,Exp Visual Search,,2025.1.1,60.00736891,2025-09-30 15h29.46.791160 +0530
139,0,139,np.float64(-0.46574074074074073),np.float64(0.14166666666666666),1,0,0,1.4507595,target',139,0,139,0,245.6792608,,10,245.6679798,245.6792608,245.6792608,0.0325516,247.1188488,np.float64(-0.46574074074074073),np.float64(0.14166666666666666),1,0,0,1.4507595,target',3,1,2025-09-30_15h29.36.087,Exp Visual Search,,2025.1.1,60.00736891,2025-09-30 15h29.46.791160 +0530
141,0,141,np.float64(0.19814814814814816),np.float64(-0.47129629629629627),1,0,0,1.5799608,target',141,0,141,0,248.4486781,,10,248.43764,248.4486781,248.4486781,0.0195618,250.0176616,np.float64(0.19814814814814816),np.float64(-0.47129629629629627),1,0,0,1.5799608,target',3,1,2025-09-30_15h29.36.087,Exp Visual Search,,2025.1.1,60.00736891,2025-09-30 15h29.46.791160 +0530
142,0,142,np.float64(-0.33425925925925926),np.float64(-0.07037037037037037),1,0,0,2.5141256,target',142,0,142,0,250.0469944,,10,250.0371228,250.0469944,250.0469944,0.0193221,252.551345,np.float64(-0.33425925925925926),np.float64(-0.07037037037037037),1,0,0,2.5141256,target',3,1,2025-09-30_15h29.36.087,Exp Visual Search,,2025.1.1,60.00736891,2025-09-30 15h29.46.791160 +0530
144,0,144,np.float64(0.1537037037037037),np.float64(0.3212962962962963),1,0,0,1.5600599,target',144,0,144,0,254.223567,,10,254.2076577,254.223567,254.223567,0.0230283,255.7678274,np.float64(0.1537037037037037),np.float64(0.3212962962962963),1,0,0,1.5600599,target',3,1,2025-09-30_15h29.36.087,Exp Visual Search,,2025.1.1,60.00736891,2025-09-30 15h29.46.791160 +0530
145,0,145,np.float64(0.12129629629629629),np.float64(0.2037037037037037),1,0,0,1.0910048,target',145,0,145,0,255.8073878,,10,255.7931161,255.8073878,255.8073878,0.0250295,256.8842296,np.float64(0.12129629629629629),np.float64(0.2037037037037037),1,0,0,1.0910048,target',3,1,2025-09-30_15h29.36.087,Exp Visual Search,,2025.1.1,60.00736891,2025-09-30 15h29.46.791160 +0530
147,0,147,np.float64(-0.1675925925925926),np.float64(0.18518518518518517),1,0,0,1.2939299,target',147,0,147,0,257.938645,,10,257.9238757,257.938645,257.938645,0.0224748,259.2178967,np.float64(-0.1675925925925926),np.float64(0.18518518518518517),1,0,0,1.2939299,target',3,1,2025-09-30_15h29.36.087,Exp Visual Search,,2025.1.1,60.00736891,2025-09-30 15h29.46.791160 +0530
152,0,152,np.float64(0.27870370370370373),np.float64(0.4074074074074074),1,0,0,1.8706651,target',152,0,152,0,264.9933457,,10,264.9791102,264.9933457,264.9933457,0.0282363,266.8498506,np.float64(0.27870370370370373),np.float64(0.4074074074074074),1,0,0,1.8706651,target',3,1,2025-09-30_15h29.36.087,Exp Visual Search,,2025.1.1,60.00736891,2025-09-30 15h29.46.791160 +0530
154,0,154,np.float64(-0.15185185185185185),np.float64(-0.3712962962962963),1,0,0,2.5599576,target',154,0,154,0,268.1160372,,10,268.1058275,268.1160372,268.1160372,0.0222559,270.6658632,np.float64(-0.15185185185185185),np.float64(-0.3712962962962963),1,0,0,2.5599576,target',3,1,2025-09-30_15h29.36.087,Exp Visual Search,,2025.1.1,60.00736891,2025-09-30 15h29.46.791160 +0530
156,0,156,np.float64(-0.08055555555555556),np.float64(-0.34814814814814815),1,0,0,1.8580528,target',156,0,156,0,272.9568981,,10,272.9420428,272.9568981,272.9568981,0.0248223,274.8002039,np.float64(-0.08055555555555556),np.float64(-0.34814814814814815),1,0,0,1.8580528,target',3,1,2025-09-30_15h29.36.087,Exp Visual Search,,2025.1.1,60.00736891,2025-09-30 15h29.46.791160 +0530
158,0,158,np.float64(-0.45740740740740743),np.float64(-0.25833333333333336),1,0,0,1.6626623,target',158,0,158,0,276.4007536,,10,276.3873272,276.4007536,276.4007536,0.0207454,278.0501009,np.float64(-0.45740740740740743),np.float64(-0.25833333333333336),1,0,0,1.6626623,target',3,1,2025-09-30_15h29.36.087,Exp Visual Search,,2025.1.1,60.00736891,2025-09-30 15h29.46.791160 +0530
160,0,160,np.float64(-0.1675925925925926),np.float64(0.14351851851851852),1,0,0,1.3612517,target',160,0,160,0,279.335505,,10,279.3214953,279.335505,279.335505,0.022481,280.682834,np.float64(-0.1675925925925926),np.float64(0.14351851851851852),1,0,0,1.3612517,target',3,1,2025-09-30_15h29.36.087,Exp Visual Search,,2025.1.1,60.00736891,2025-09-30 15h29.46.791160 +0530
162,0,162,np.float64(-0.38796296296296295),np.float64(-0.17314814814814813),1,0,0,1.927994,target',162,0,162,0,281.9017073,,10,281.8872782,281.9017073,281.9017073,0.0210519,283.8154142,np.float64(-0.38796296296296295),np.float64(-0.17314814814814813),1,0,0,1.927994,target',3,1,2025-09-30_15h29.36.087,Exp Visual Search,,2025.1.1,60.00736891,2025-09-30 15h29.46.791160 +0530
163,0,163,np.float64(0.35833333333333334),np.float64(0.15555555555555556),1,0,0,1.6103239,target',163,0,163,0,283.8513137,,10,283.8388765,283.8513137,283.8513137,0.0231964,285.4492824,np.float64(0.35833333333333334),np.float64(0.15555555555555556),1,0,0,1.6103239,target',3,1,2025-09-30_15h29.36.087,Exp Visual Search,,2025.1.1,60.00736891,2025-09-30 15h29.46.791160 +0530
167,0,167,np.float64(0.3138888888888889),np.float64(-0.17037037037037037),1,0,0,1.4086862,target',167,0,167,0,289.9034771,,10,289.8898555,289.9034771,289.9034771,0.040666,291.2985895,np.float64(0.3138888888888889),np.float64(-0.17037037037037037),1,0,0,1.4086862,target',3,1,2025-09-30_15h29.36.087,Exp Visual Search,,2025.1.1,60.00736891,2025-09-30 15h29.46.791160 +0530
168,0,168,np.float64(-0.021296296296296296),np.float64(0.03518518518518519),1,0,0,2.1745872,target',168,0,168,0,291.3347607,,10,291.3238883,291.3347607,291.3347607,0.0251993,293.4985442,np.float64(-0.021296296296296296),np.float64(0.03518518518518519),1,0,0,2.1745872,target',3,1,2025-09-30_15h29.36.087,Exp Visual Search,,2025.1.1,60.00736891,2025-09-30 15h29.46.791160 +0530
170,0,170,np.float64(-0.21574074074074073),np.float64(0.1),1,0,0,1.5974151,target',170,0,170,0,295.1444424,,10,295.1332769,295.1444424,295.1444424,0.0182049,296.7307535,np.float64(-0.21574074074074073),np.float64(0.1),1,0,0,1.5974151,target',3,1,2025-09-30_15h29.36.087,Exp Visual Search,,2025.1.1,60.00736891,2025-09-30 15h29.46.791160 +0530
171,0,171,np.float64(-0.24537037037037038),np.float64(0.44074074074074077),1,0,0,2.5816966,None,171,0,171,0,296.7626188,,10,296.7495343,296.7626188,296.7626188,0.0186431,299.3313457,np.float64(-0.24537037037037038),np.float64(0.44074074074074077),1,0,0,2.5816966,None,3,1,2025-09-30_15h29.36.087,Exp Visual Search,,2025.1.1,60.00736891,2025-09-30 15h29.46.791160 +0530
172,0,172,np.float64(-0.45555555555555555),np.float64(0.2824074074074074),1,0,0,1.6577533,target',172,0,172,0,299.3699571,,10,299.3568371,299.3699571,299.3699571,0.0252941,301.014684,np.float64(-0.45555555555555555),np.float64(0.2824074074074074),1,0,0,1.6577533,target',3,1,2025-09-30_15h29.36.087,Exp Visual Search,,2025.1.1,60.00736891,2025-09-30 15h29.46.791160 +0530
173,0,173,np.float64(0.016666666666666666),np.float64(0.3388888888888889),1,0,0,1.4834303,target',173,0,173,0,301.0690553,,10,301.0477542,301.0690553,301.0690553,0.0328315,302.5312316,np.float64(0.016666666666666666),np.float64(0.3388888888888889),1,0,0,1.4834303,target',3,1,2025-09-30_15h29.36.087,Exp Visual Search,,2025.1.1,60.00736891,2025-09-30 15h29.46.791160 +0530
175,0,175,np.float64(-0.07777777777777778),np.float64(0.3111111111111111),1,0,0,1.6730633,target',175,0,175,0,304.4695079,,10,304.4580038,304.4695079,304.4695079,0.0269786,306.1311547,np.float64(-0.07777777777777778),np.float64(0.3111111111111111),1,0,0,1.6730633,target',3,1,2025-09-30_15h29.36.087,Exp Visual Search,,2025.1.1,60.00736891,2025-09-30 15h29.46.791160 +0530
180,0,180,np.float64(0.3537037037037037),np.float64(-0.09907407407407408),1,0,0,1.6625877,target',180,0,180,0,312.3987375,,10,312.383788,312.3987375,312.3987375,0.0197961,314.0464263,np.float64(0.3537037037037037),np.float64(-0.09907407407407408),1,0,0,1.6625877,target',3,1,2025-09-30_15h29.36.087,Exp Visual Search,,2025.1.1,60.00736891,2025-09-30 15h29.46.791160 +0530
181,0,181,np.float64(-0.4925925925925926),np.float64(0.1814814814814815),1,0,0,1.6980985,target',181,0,181,0,314.079653,,10,314.0660158,314.079653,314.079653,0.0194677,315.7642003,np.float64(-0.4925925925925926),np.float64(0.1814814814814815),1,0,0,1.6980985,target',3,1,2025-09-30_15h29.36.087,Exp Visual Search,,2025.1.1,60.00736891,2025-09-30 15h29.46.791160 +0530
182,0,182,np.float64(0.10648148148148148),np.float64(0.3111111111111111),1,0,0,1.512204,target',182,0,182,0,315.799043,,10,315.7842685,315.799043,315.799043,0.0198562,317.2965301,np.float64(0.10648148148148148),np.float64(0.3111111111111111),1,0,0,1.512204,target',3,1,2025-09-30_15h29.36.087,Exp Visual Search,,2025.1.1,60.00736891,2025-09-30 15h29.46.791160 +0530
183,0,183,np.float64(0.31574074074074077),np.float64(0.35555555555555557),1,0,0,2.0290101,target',183,0,183,0,317.330205,,10,317.3181737,317.330205,317.330205,0.021507,319.3472636,np.float64(0.31574074074074077),np.float64(0.35555555555555557),1,0,0,2.0290101,target',3,1,2025-09-30_15h29.36.087,Exp Visual Search,,2025.1.1,60.00736891,2025-09-30 15h29.46.791160 +0530
185,0,185,np.float64(-0.1259259259259259),np.float64(0.10092592592592593),1,0,0,1.6128346,target',185,0,185,0,321.5782047,,10,321.567033,321.5782047,321.5782047,0.0205846,323.1799413,np.float64(-0.1259259259259259),np.float64(0.10092592592592593),1,0,0,1.6128346,target',3,1,2025-09-30_15h29.36.087,Exp Visual Search,,2025.1.1,60.00736891,2025-09-30 15h29.46.791160 +0530
186,0,186,np.float64(0.12314814814814815),np.float64(-0.4527777777777778),1,0,0,2.0090633,target',186,0,186,0,323.2183753,,10,323.2046737,323.2183753,323.2183753,0.0245753,325.2137955,np.float64(0.12314814814814815),np.float64(-0.4527777777777778),1,0,0,2.0090633,target',3,1,2025-09-30_15h29.36.087,Exp Visual Search,,2025.1.1,60.00736891,2025-09-30 15h29.46.791160 +0530
187,0,187,np.float64(0.3296296296296296),np.float64(0.14814814814814814),1,0,0,2.1137361,target',187,0,187,0,325.2449278,,10,325.2327824,325.2449278,325.2449278,0.0188661,327.3466002,np.float64(0.3296296296296296),np.float64(0.14814814814814814),1,0,0,2.1137361,target',3,1,2025-09-30_15h29.36.087,Exp Visual Search,,2025.1.1,60.00736891,2025-09-30 15h29.46.791160 +0530
190,0,190,np.float64(-0.05648148148148148),np.float64(-0.16018518518518518),1,0,0,1.4929601,target',190,0,190,0,330.4986392,,10,330.4861322,330.4986392,330.4986392,0.0400951,331.9791577,np.float64(-0.05648148148148148),np.float64(-0.16018518518518518),1,0,0,1.4929601,target',3,1,2025-09-30_15h29.36.087,Exp Visual Search,,2025.1.1,60.00736891,2025-09-30 15h29.46.791160 +0530
191,0,191,np.float64(0.38425925925925924),np.float64(-0.26481481481481484),1,0,0,2.4422863,target',191,0,191,0,332.0217796,,10,332.0041698,332.0217796,332.0217796,0.0248569,334.4465893,np.float64(0.38425925925925924),np.float64(-0.26481481481481484),1,0,0,2.4422863,target',3,1,2025-09-30_15h29.36.087,Exp Visual Search,,2025.1.1,60.00736891,2025-09-30 15h29.46.791160 +0530
197,0,197,np.float64(0.44722222222222224),np.float64(0.10925925925925926),1,0,0,1.7699137,target',197,0,197,0,343.4230685,,10,343.4085022,343.4230685,343.4230685,0.0299864,345.1784906,np.float64(0.44722222222222224),np.float64(0.10925925925925926),1,0,0,1.7699137,target',3,1,2025-09-30_15h29.36.087,Exp Visual Search,,2025.1.1,60.00736891,2025-09-30 15h29.46.791160 +0530
198,0,198,np.float64(0.075),np.float64(-0.1175925925925926),1,0,0,1.6789044,target',198,0,198,0,345.2146168,,10,345.1997857,345.2146168,345.2146168,0.0210979,346.8787505,np.float64(0.075),np.float64(-0.1175925925925926),1,0,0,1.6789044,target',3,1,2025-09-30_15h29.36.087,Exp Visual Search,,2025.1.1,60.00736891,2025-09-30 15h29.46.791160 +0530
,,,,,,,,,,,,,,,,,,,,,,,,,,,,,,,,,,,,
,,,,,,,,Average of 5 dist,,1.574207971,5,,,,,,,,,,,,,,,,,,,,,,,,,
,,,,,,,,Average of 10 dist,,1.878346357,10,,,,,,,,,,,,,,,,,,,,,,,,,
,,,,,,,,slope,,0.06082767706,,,,,,,,,,,,,,,,,,,,,,,,,,