pos,corr_resp,thisN,thisTrialN,thisRepN,key_resp.keys,key_resp.corr,key_resp.rt,key_resp.duration,trials.thisRepN,trials.thisTrialN,trials.thisN,trials.thisIndex,trials_2.thisRepN,trials_2.thisTrialN,trials_2.thisN,trials_2.thisIndex,thisRow.t,notes,trial.started,fixtion.started,line1.started,line2.started,line3.started,line4.started,fixtion.stopped,probe.started,key_resp.started,trial.stopped,trials.key_resp.keys,trials.key_resp.corr,trials.key_resp.rt,trials.key_resp.duration,trials_2.key_resp.keys,trials_2.key_resp.corr,trials_2.key_resp.rt,trials_2.key_resp.duration,participant,session,date,expName,expVersion,psychopyVersion,frameRate,expStart
-50,x,0,0,0,x,1,0.8781058,None,0,0,0,0,,,,,0.0142362,,0.0095785,0.0142362,0.9995799,0.9995799,0.9995799,0.9995799,1.0163911,1.9994859,1.9994859,2.9059082,x,1,0.8781058,None,,,,,F1,1,2025-10-01_14h20.22.753,Motor sequence,,2025.1.1,59.95196648,2025-10-01 14h20.28.636565 +0530
150,v,1,1,0,v,1,0.5347219,None,0,1,1,1,,,,,2.9109489,,2.9061246,2.9109489,3.9157326,3.9157326,3.9157326,3.9157326,3.9157326,4.9159578,4.9159578,5.4667692,v,1,0.5347219,None,,,,,F1,1,2025-10-01_14h20.22.753,Motor sequence,,2025.1.1,59.95196648,2025-10-01 14h20.28.636565 +0530
50,c,2,2,0,c,1,0.2959757,None,0,2,2,2,,,,,5.4827358,,5.4672725,5.4827358,6.4659839,6.4659839,6.4659839,6.4659839,6.4825479,7.4826214,7.4826214,7.7827522,c,1,0.2959757,None,,,,,F1,1,2025-10-01_14h20.22.753,Motor sequence,,2025.1.1,59.95196648,2025-10-01 14h20.28.636565 +0530
-150,z,3,3,0,z,1,0.2717182,None,0,3,3,3,,,,,7.7991585,,7.7832082,7.7991585,8.7825271,8.7825271,8.7825271,8.7825271,8.7990939,9.7842784,9.7842784,10.0660128,z,1,0.2717182,None,,,,,F1,1,2025-10-01_14h20.22.753,Motor sequence,,2025.1.1,59.95196648,2025-10-01 14h20.28.636565 +0530
-50,x,4,0,1,x,1,0.2592639,None,1,0,4,0,,,,,10.08219,,10.0664367,10.08219,11.0656845,11.0656845,11.0656845,11.0656845,11.0822985,12.065619,12.065619,12.3327871,x,1,0.2592639,None,,,,,F1,1,2025-10-01_14h20.22.753,Motor sequence,,2025.1.1,59.95196648,2025-10-01 14h20.28.636565 +0530
150,v,5,1,1,v,1,0.2447053,None,1,1,5,1,,,,,12.3489762,,12.3332361,12.3489762,13.3322225,13.3322225,13.3322225,13.3322225,13.3489855,14.3322189,14.3322189,14.582726,v,1,0.2447053,None,,,,,F1,1,2025-10-01_14h20.22.753,Motor sequence,,2025.1.1,59.95196648,2025-10-01 14h20.28.636565 +0530
50,c,6,2,1,c,1,0.2920745,None,1,2,6,2,,,,,14.5986522,,14.5833362,14.5986522,15.5820303,15.5820303,15.5820303,15.5820303,15.5988525,16.5820253,16.5820253,16.8825881,c,1,0.2920745,None,,,,,F1,1,2025-10-01_14h20.22.753,Motor sequence,,2025.1.1,59.95196648,2025-10-01 14h20.28.636565 +0530
-150,z,7,3,1,z,1,0.2696998,None,1,3,7,3,,,,,16.8985171,,16.8831843,16.8985171,17.882028,17.882028,17.882028,17.882028,17.8984912,18.8818077,18.8818077,19.1657223,z,1,0.2696998,None,,,,,F1,1,2025-10-01_14h20.22.753,Motor sequence,,2025.1.1,59.95196648,2025-10-01 14h20.28.636565 +0530
-50,x,8,0,2,x,1,0.3040212,None,2,0,8,0,,,,,19.1818947,,19.1662372,19.1818947,20.165399,20.165399,20.165399,20.165399,20.1815754,21.1651546,21.1651546,21.4823855,x,1,0.3040212,None,,,,,F1,1,2025-10-01_14h20.22.753,Motor sequence,,2025.1.1,59.95196648,2025-10-01 14h20.28.636565 +0530
150,v,9,1,2,v,1,0.275874,None,2,1,9,1,,,,,21.4986088,,21.4828333,21.4986088,22.4817629,22.4817629,22.4817629,22.4817629,22.4982008,23.4816879,23.4816879,23.7656341,v,1,0.275874,None,,,,,F1,1,2025-10-01_14h20.22.753,Motor sequence,,2025.1.1,59.95196648,2025-10-01 14h20.28.636565 +0530
50,c,10,2,2,c,1,0.2833094,None,2,2,10,2,,,,,23.7817181,,23.7661112,23.7817181,24.7652238,24.7652238,24.7652238,24.7652238,24.7815232,25.7814352,25.7814352,26.0655787,c,1,0.2833094,None,,,,,F1,1,2025-10-01_14h20.22.753,Motor sequence,,2025.1.1,59.95196648,2025-10-01 14h20.28.636565 +0530
-150,z,11,3,2,z,1,0.2136225,None,2,3,11,3,,,,,26.0816821,,26.066025,26.0816821,27.0649654,27.0649654,27.0649654,27.0649654,27.0814511,28.0648105,28.0648105,28.2820853,z,1,0.2136225,None,,,,,F1,1,2025-10-01_14h20.22.753,Motor sequence,,2025.1.1,59.95196648,2025-10-01 14h20.28.636565 +0530
-50,x,12,0,3,x,1,0.2321394,None,3,0,12,0,,,,,28.2983004,,28.2825828,28.2983004,29.2813413,29.2813413,29.2813413,29.2813413,29.2979824,30.2979023,30.2979023,30.5317432,x,1,0.2321394,None,,,,,F1,1,2025-10-01_14h20.22.753,Motor sequence,,2025.1.1,59.95196648,2025-10-01 14h20.28.636565 +0530
150,v,13,1,3,v,1,0.2671325,None,3,1,13,1,,,,,30.5480442,,30.5321937,30.5480442,31.5314687,31.5314687,31.5314687,31.5314687,31.5476075,32.5309582,32.5309582,32.8150898,v,1,0.2671325,None,,,,,F1,1,2025-10-01_14h20.22.753,Motor sequence,,2025.1.1,59.95196648,2025-10-01 14h20.28.636565 +0530
50,c,14,2,3,c,1,0.2923443,None,3,2,14,2,,,,,32.8311457,,32.8155497,32.8311457,33.8144289,33.8144289,33.8144289,33.8144289,33.8309694,34.8145081,34.8145081,35.1149005,c,1,0.2923443,None,,,,,F1,1,2025-10-01_14h20.22.753,Motor sequence,,2025.1.1,59.95196648,2025-10-01 14h20.28.636565 +0530
-150,z,15,3,3,z,1,0.3143055,None,3,3,15,3,,,,,35.1309085,,35.1154279,35.1309085,36.1145392,36.1145392,36.1145392,36.1145392,36.1304928,37.1141204,37.1141204,37.4316647,z,1,0.3143055,None,,,,,F1,1,2025-10-01_14h20.22.753,Motor sequence,,2025.1.1,59.95196648,2025-10-01 14h20.28.636565 +0530
-50,x,16,0,4,x,1,0.1239486,None,4,0,16,0,,,,,37.4477601,,37.4321102,37.4477601,38.4309883,38.4309883,38.4309883,38.4309883,38.4473779,39.447244,39.447244,39.5809868,x,1,0.1239486,None,,,,,F1,1,2025-10-01_14h20.22.753,Motor sequence,,2025.1.1,59.95196648,2025-10-01 14h20.28.636565 +0530
150,v,17,1,4,v,1,0.2733209,None,4,1,17,1,,,,,39.5973526,,39.5814636,39.5973526,40.5805573,40.5805573,40.5805573,40.5805573,40.5974003,41.5805441,41.5805441,41.8640711,v,1,0.2733209,None,,,,,F1,1,2025-10-01_14h20.22.753,Motor sequence,,2025.1.1,59.95196648,2025-10-01 14h20.28.636565 +0530
50,c,18,2,4,c,1,0.2577466,None,4,2,18,2,,,,,41.880458,,41.8643986,41.880458,42.8637338,42.8637338,42.8637338,42.8637338,42.8803868,43.8637994,43.8637994,44.1307194,c,1,0.2577466,None,,,,,F1,1,2025-10-01_14h20.22.753,Motor sequence,,2025.1.1,59.95196648,2025-10-01 14h20.28.636565 +0530
-150,z,19,3,4,z,1,0.3058782,None,4,3,19,3,,,,,44.1469418,,44.131173,44.1469418,45.130281,45.130281,45.130281,45.130281,45.1470573,46.1302545,46.1302545,46.4472284,z,1,0.3058782,None,,,,,F1,1,2025-10-01_14h20.22.753,Motor sequence,,2025.1.1,59.95196648,2025-10-01 14h20.28.636565 +0530
-50,x,20,0,5,x,1,0.6109809,None,5,0,20,0,,,,,46.4635098,,46.4476556,46.4635098,47.4469017,47.4469017,47.4469017,47.4469017,47.4635737,48.4468179,48.4468179,49.0640433,x,1,0.6109809,None,,,,,F1,1,2025-10-01_14h20.22.753,Motor sequence,,2025.1.1,59.95196648,2025-10-01 14h20.28.636565 +0530
150,v,21,1,5,v,1,0.2737947,None,5,1,21,1,,,,,49.0798354,,49.0645113,49.0798354,50.0635081,50.0635081,50.0635081,50.0635081,50.0801277,51.0633329,51.0633329,51.3472208,v,1,0.2737947,None,,,,,F1,1,2025-10-01_14h20.22.753,Motor sequence,,2025.1.1,59.95196648,2025-10-01 14h20.28.636565 +0530
50,c,22,2,5,c,1,0.362386,None,5,2,22,2,,,,,51.3634482,,51.347772,51.3634482,52.3467132,52.3467132,52.3467132,52.3467132,52.3633924,53.3466639,53.3466639,53.713573,c,1,0.362386,None,,,,,F1,1,2025-10-01_14h20.22.753,Motor sequence,,2025.1.1,59.95196648,2025-10-01 14h20.28.636565 +0530
-150,z,23,3,5,z,1,0.3049805,None,5,3,23,3,,,,,53.7296446,,53.7140783,53.7296446,54.7132426,54.7132426,54.7132426,54.7132426,54.7298148,55.7131566,55.7131566,56.0302286,z,1,0.3049805,None,,,,,F1,1,2025-10-01_14h20.22.753,Motor sequence,,2025.1.1,59.95196648,2025-10-01 14h20.28.636565 +0530
-50,x,24,0,6,x,1,0.080397,None,6,0,24,0,,,,,56.0464559,,56.0307398,56.0464559,57.0296726,57.0296726,57.0296726,57.0296726,57.0464265,58.0294909,58.0294909,58.1134814,x,1,0.080397,None,,,,,F1,1,2025-10-01_14h20.22.753,Motor sequence,,2025.1.1,59.95196648,2025-10-01 14h20.28.636565 +0530
150,v,25,1,6,v,1,0.1685504,None,6,1,25,1,,,,,58.1294055,,58.1139573,58.1294055,59.1129237,59.1129237,59.1129237,59.1129237,59.1295307,60.1128924,60.1128924,60.2966345,v,1,0.1685504,None,,,,,F1,1,2025-10-01_14h20.22.753,Motor sequence,,2025.1.1,59.95196648,2025-10-01 14h20.28.636565 +0530
50,c,26,2,6,c,1,0.3232261,None,6,2,26,2,,,,,60.3128407,,60.2970938,60.3128407,61.2957443,61.2957443,61.2957443,61.2957443,61.3128045,62.2961072,62.2961072,62.6297101,c,1,0.3232261,None,,,,,F1,1,2025-10-01_14h20.22.753,Motor sequence,,2025.1.1,59.95196648,2025-10-01 14h20.28.636565 +0530
-150,z,27,3,6,z,1,0.2531193,None,6,3,27,3,,,,,62.645824,,62.630206,62.645824,63.6291728,63.6291728,63.6291728,63.6291728,63.6458129,64.6290858,64.6290858,64.896481,z,1,0.2531193,None,,,,,F1,1,2025-10-01_14h20.22.753,Motor sequence,,2025.1.1,59.95196648,2025-10-01 14h20.28.636565 +0530
-50,x,28,0,7,x,1,0.2579011,None,7,0,28,0,,,,,64.912522,,64.8969224,64.912522,65.8957658,65.8957658,65.8957658,65.8957658,65.9123212,66.9124417,66.9124417,67.1795433,x,1,0.2579011,None,,,,,F1,1,2025-10-01_14h20.22.753,Motor sequence,,2025.1.1,59.95196648,2025-10-01 14h20.28.636565 +0530
150,v,29,1,7,v,1,0.2053242,None,7,1,29,1,,,,,67.1955625,,67.1799793,67.1955625,68.1789084,68.1789084,68.1789084,68.1789084,68.1957458,69.1789009,69.1789009,69.3961947,v,1,0.2053242,None,,,,,F1,1,2025-10-01_14h20.22.753,Motor sequence,,2025.1.1,59.95196648,2025-10-01 14h20.28.636565 +0530
50,c,30,2,7,c,1,0.2801109,None,7,2,30,2,,,,,69.411985,,69.3966681,69.411985,70.3956193,70.3956193,70.3956193,70.3956193,70.4121723,71.3953209,71.3953209,71.6792057,c,1,0.2801109,None,,,,,F1,1,2025-10-01_14h20.22.753,Motor sequence,,2025.1.1,59.95196648,2025-10-01 14h20.28.636565 +0530
-150,z,31,3,7,z,1,0.335154,None,7,3,31,3,,,,,71.6954239,,71.6796478,71.6954239,72.6783431,72.6783431,72.6783431,72.6783431,72.6953075,73.6782836,73.6782836,74.029078,z,1,0.335154,None,,,,,F1,1,2025-10-01_14h20.22.753,Motor sequence,,2025.1.1,59.95196648,2025-10-01 14h20.28.636565 +0530
-50,x,32,0,8,x,1,0.1325772,None,8,0,32,0,,,,,74.0451133,,74.0297939,74.0451133,75.0285877,75.0285877,75.0285877,75.0285877,75.0453269,76.0284551,76.0284551,76.1623644,x,1,0.1325772,None,,,,,F1,1,2025-10-01_14h20.22.753,Motor sequence,,2025.1.1,59.95196648,2025-10-01 14h20.28.636565 +0530
150,v,33,1,8,v,1,0.4134826,None,8,1,33,1,,,,,76.178416,,76.1628058,76.178416,77.1617446,77.1617446,77.1617446,77.1617446,77.1783825,78.1615446,78.1615446,78.5787285,v,1,0.4134826,None,,,,,F1,1,2025-10-01_14h20.22.753,Motor sequence,,2025.1.1,59.95196648,2025-10-01 14h20.28.636565 +0530
50,c,34,2,8,c,1,0.2488933,None,8,2,34,2,,,,,78.5950665,,78.5791713,78.5950665,79.5783276,79.5783276,79.5783276,79.5783276,79.5949752,80.5780835,80.5780835,80.8284893,c,1,0.2488933,None,,,,,F1,1,2025-10-01_14h20.22.753,Motor sequence,,2025.1.1,59.95196648,2025-10-01 14h20.28.636565 +0530
-150,z,35,3,8,z,1,0.2619742,None,8,3,35,3,,,,,80.8448629,,80.8289451,80.8448629,81.8280736,81.8280736,81.8280736,81.8280736,81.844775,82.8279908,82.8279908,83.0951725,z,1,0.2619742,None,,,,,F1,1,2025-10-01_14h20.22.753,Motor sequence,,2025.1.1,59.95196648,2025-10-01 14h20.28.636565 +0530
-50,x,36,0,9,x,1,0.2897889,None,9,0,36,0,,,,,83.1113675,,83.0956277,83.1113675,84.0947807,84.0947807,84.0947807,84.0947807,84.1113118,85.0946306,85.0946306,85.3952696,x,1,0.2897889,None,,,,,F1,1,2025-10-01_14h20.22.753,Motor sequence,,2025.1.1,59.95196648,2025-10-01 14h20.28.636565 +0530
150,v,37,1,9,v,1,0.2439862,None,9,1,37,1,,,,,85.4113448,,85.3957623,85.4113448,86.3945941,86.3945941,86.3945941,86.3945941,86.4111845,87.411247,87.411247,87.6617882,v,1,0.2439862,None,,,,,F1,1,2025-10-01_14h20.22.753,Motor sequence,,2025.1.1,59.95196648,2025-10-01 14h20.28.636565 +0530
50,c,38,2,9,c,1,0.6123365,None,9,2,38,2,,,,,87.6778006,,87.6622323,87.6778006,88.6610811,88.6610811,88.6610811,88.6610811,88.6777395,89.661194,89.661194,90.2779605,c,1,0.6123365,None,,,,,F1,1,2025-10-01_14h20.22.753,Motor sequence,,2025.1.1,59.95196648,2025-10-01 14h20.28.636565 +0530
-150,z,39,3,9,z,1,0.3938746,None,9,3,39,3,,,,,90.2942724,,90.2784157,90.2942724,91.2775719,91.2775719,91.2775719,91.2775719,91.2940139,92.2775275,92.2775275,92.6780814,z,1,0.3938746,None,,,,,F1,1,2025-10-01_14h20.22.753,Motor sequence,,2025.1.1,59.95196648,2025-10-01 14h20.28.636565 +0530
-50,x,40,0,10,x,1,0.4620768,None,10,0,40,0,,,,,92.6941917,,92.6785284,92.6941917,93.6771639,93.6771639,93.6771639,93.6771639,93.6939527,94.6772849,94.6772849,95.1445934,x,1,0.4620768,None,,,,,F1,1,2025-10-01_14h20.22.753,Motor sequence,,2025.1.1,59.95196648,2025-10-01 14h20.28.636565 +0530
150,v,41,1,10,v,1,0.613589,None,10,1,41,1,,,,,95.1607658,,95.1450922,95.1607658,96.1440237,96.1440237,96.1440237,96.1440237,96.1605831,97.1439572,97.1439572,97.7613253,v,1,0.613589,None,,,,,F1,1,2025-10-01_14h20.22.753,Motor sequence,,2025.1.1,59.95196648,2025-10-01 14h20.28.636565 +0530
50,c,42,2,10,c,1,0.2495683,None,10,2,42,2,,,,,97.7772085,,97.7617696,97.7772085,98.7602818,98.7602818,98.7602818,98.7602818,98.7771648,99.7603731,99.7603731,100.0108852,c,1,0.2495683,None,,,,,F1,1,2025-10-01_14h20.22.753,Motor sequence,,2025.1.1,59.95196648,2025-10-01 14h20.28.636565 +0530
-150,z,43,3,10,z,1,0.2427238,None,10,3,43,3,,,,,100.0268908,,100.0113432,100.0268908,101.0102516,101.0102516,101.0102516,101.0102516,101.0268989,102.026577,102.026577,102.2774755,z,1,0.2427238,None,,,,,F1,1,2025-10-01_14h20.22.753,Motor sequence,,2025.1.1,59.95196648,2025-10-01 14h20.28.636565 +0530
-50,x,44,0,11,x,1,0.7088826,None,11,0,44,0,,,,,102.2936467,,102.2779208,102.2936467,103.2767644,103.2767644,103.2767644,103.2767644,103.2933824,104.2767164,104.2767164,104.9940761,x,1,0.7088826,None,,,,,F1,1,2025-10-01_14h20.22.753,Motor sequence,,2025.1.1,59.95196648,2025-10-01 14h20.28.636565 +0530
150,v,45,1,11,v,1,0.3220442,None,11,1,45,1,,,,,105.0100977,,104.9945557,105.0100977,106.0100343,106.0100343,106.0100343,106.0100343,106.0100343,106.9931256,106.9931256,107.3272366,v,1,0.3220442,None,,,,,F1,1,2025-10-01_14h20.22.753,Motor sequence,,2025.1.1,59.95196648,2025-10-01 14h20.28.636565 +0530
50,c,46,2,11,c,1,0.2804259,None,11,2,46,2,,,,,107.343342,,107.3276786,107.343342,108.3265059,108.3265059,108.3265059,108.3265059,108.3432685,109.3265164,109.3265164,109.610549,c,1,0.2804259,None,,,,,F1,1,2025-10-01_14h20.22.753,Motor sequence,,2025.1.1,59.95196648,2025-10-01 14h20.28.636565 +0530
-150,z,47,3,11,z,1,0.3142849,None,11,3,47,3,,,,,109.6262623,,109.6110827,109.6262623,110.6098381,110.6098381,110.6098381,110.6098381,110.626429,111.609776,111.609776,111.9269551,z,1,0.3142849,None,,,,,F1,1,2025-10-01_14h20.22.753,Motor sequence,,2025.1.1,59.95196648,2025-10-01 14h20.28.636565 +0530
-50,x,48,0,12,x,1,0.2155494,None,12,0,48,0,,,,,111.9429717,,111.927416,111.9429717,112.9263099,112.9263099,112.9263099,112.9263099,112.9427347,113.9260143,113.9260143,114.1434007,x,1,0.2155494,None,,,,,F1,1,2025-10-01_14h20.22.753,Motor sequence,,2025.1.1,59.95196648,2025-10-01 14h20.28.636565 +0530
150,v,49,1,12,v,1,0.6925452,None,12,1,49,1,,,,,114.1595303,,114.1438421,114.1595303,115.1426887,115.1426887,115.1426887,115.1426887,115.15932,116.1424955,116.1424955,116.8431818,v,1,0.6925452,None,,,,,F1,1,2025-10-01_14h20.22.753,Motor sequence,,2025.1.1,59.95196648,2025-10-01 14h20.28.636565 +0530
50,c,50,2,12,c,1,0.3049845,None,12,2,50,2,,,,,116.8590319,,116.8436509,116.8590319,117.8424551,117.8424551,117.8424551,117.8424551,117.8591347,118.8426589,118.8426589,119.1597771,c,1,0.3049845,None,,,,,F1,1,2025-10-01_14h20.22.753,Motor sequence,,2025.1.1,59.95196648,2025-10-01 14h20.28.636565 +0530
-150,z,51,3,12,z,1,0.2512241,None,12,3,51,3,,,,,119.1757384,,119.1602371,119.1757384,120.1591522,120.1591522,120.1591522,120.1591522,120.1755201,121.1590987,121.1590987,121.4262901,z,1,0.2512241,None,,,,,F1,1,2025-10-01_14h20.22.753,Motor sequence,,2025.1.1,59.95196648,2025-10-01 14h20.28.636565 +0530
-50,x,52,0,13,x,1,0.2323329,None,13,0,52,0,,,,,121.4422748,,121.426777,121.4422748,122.42562,122.42562,122.42562,122.42562,122.4424122,123.4256642,123.4256642,123.6593561,x,1,0.2323329,None,,,,,F1,1,2025-10-01_14h20.22.753,Motor sequence,,2025.1.1,59.95196648,2025-10-01 14h20.28.636565 +0530
150,v,53,1,13,v,1,0.3318359,None,13,1,53,1,,,,,123.6755401,,123.659802,123.6755401,124.6590044,124.6590044,124.6590044,124.6590044,124.6755675,125.6588121,125.6588121,125.9926442,v,1,0.3318359,None,,,,,F1,1,2025-10-01_14h20.22.753,Motor sequence,,2025.1.1,59.95196648,2025-10-01 14h20.28.636565 +0530
50,c,54,2,13,c,1,0.3518533,None,13,2,54,2,,,,,126.0089382,,125.9931108,126.0089382,126.9920959,126.9920959,126.9920959,126.9920959,127.0088418,127.9919975,127.9919975,128.3591294,c,1,0.3518533,None,,,,,F1,1,2025-10-01_14h20.22.753,Motor sequence,,2025.1.1,59.95196648,2025-10-01 14h20.28.636565 +0530
-150,z,55,3,13,z,1,0.44486,None,13,3,55,3,,,,,128.3751902,,128.3595778,128.3751902,129.358577,129.358577,129.358577,129.358577,129.3751851,130.3585068,130.3585068,130.8092178,z,1,0.44486,None,,,,,F1,1,2025-10-01_14h20.22.753,Motor sequence,,2025.1.1,59.95196648,2025-10-01 14h20.28.636565 +0530
-50,x,56,0,14,x,1,0.4159075,None,14,0,56,0,,,,,130.8250809,,130.8096808,130.8250809,131.8084568,131.8084568,131.8084568,131.8084568,131.8250221,132.8084792,132.8084792,133.2254372,x,1,0.4159075,None,,,,,F1,1,2025-10-01_14h20.22.753,Motor sequence,,2025.1.1,59.95196648,2025-10-01 14h20.28.636565 +0530
150,v,57,1,14,v,1,0.4738709,None,14,1,57,1,,,,,133.241502,,133.2258967,133.241502,134.2250162,134.2250162,134.2250162,134.2250162,134.2417418,135.2248793,135.2248793,135.7087091,v,1,0.4738709,None,,,,,F1,1,2025-10-01_14h20.22.753,Motor sequence,,2025.1.1,59.95196648,2025-10-01 14h20.28.636565 +0530
50,c,58,2,14,c,1,0.6973975,None,14,2,58,2,,,,,135.7246811,,135.7091671,135.7246811,136.7080665,136.7080665,136.7080665,136.7080665,136.7248189,137.7080927,137.7080927,138.4085814,c,1,0.6973975,None,,,,,F1,1,2025-10-01_14h20.22.753,Motor sequence,,2025.1.1,59.95196648,2025-10-01 14h20.28.636565 +0530
-150,z,59,3,14,z,1,0.2906582,None,14,3,59,3,,,,,138.4246676,,138.4090491,138.4246676,139.4079578,139.4079578,139.4079578,139.4079578,139.4244351,140.4078134,140.4078134,140.7088734,z,1,0.2906582,None,,,,,F1,1,2025-10-01_14h20.22.753,Motor sequence,,2025.1.1,59.95196648,2025-10-01 14h20.28.636565 +0530
-50,x,60,0,15,x,1,0.4516857,None,15,0,60,0,,,,,140.7244062,,140.7093284,140.7244062,141.7244193,141.7244193,141.7244193,141.7244193,141.7244193,142.7245805,142.7245805,143.1916704,x,1,0.4516857,None,,,,,F1,1,2025-10-01_14h20.22.753,Motor sequence,,2025.1.1,59.95196648,2025-10-01 14h20.28.636565 +0530
150,v,61,1,15,v,1,0.7636958,None,15,1,61,1,,,,,143.2078232,,143.1921416,143.2078232,144.1911348,144.1911348,144.1911348,144.1911348,144.2077993,145.1910877,145.1910877,145.9582777,v,1,0.7636958,None,,,,,F1,1,2025-10-01_14h20.22.753,Motor sequence,,2025.1.1,59.95196648,2025-10-01 14h20.28.636565 +0530
50,c,62,2,15,c,1,0.5863777,None,15,2,62,2,,,,,145.9742976,,145.9587202,145.9742976,146.9576124,146.9576124,146.9576124,146.9576124,146.9741021,147.9574683,147.9574683,148.5578367,c,1,0.5863777,None,,,,,F1,1,2025-10-01_14h20.22.753,Motor sequence,,2025.1.1,59.95196648,2025-10-01 14h20.28.636565 +0530
-150,z,63,3,15,z,1,0.340589,None,15,3,63,3,,,,,148.5740475,,148.5582954,148.5740475,149.5572515,149.5572515,149.5572515,149.5572515,149.5738133,150.557243,150.557243,150.9077611,z,1,0.340589,None,,,,,F1,1,2025-10-01_14h20.22.753,Motor sequence,,2025.1.1,59.95196648,2025-10-01 14h20.28.636565 +0530
-50,x,64,0,16,x,1,0.2366347,None,16,0,64,0,,,,,150.9237834,,150.9082169,150.9237834,151.9073647,151.9073647,151.9073647,151.9073647,151.9239143,152.9072476,152.9072476,153.1577246,x,1,0.2366347,None,,,,,F1,1,2025-10-01_14h20.22.753,Motor sequence,,2025.1.1,59.95196648,2025-10-01 14h20.28.636565 +0530
150,v,65,1,16,v,1,0.4995438,None,16,1,65,1,,,,,153.1737813,,153.1581866,153.1737813,154.1570804,154.1570804,154.1570804,154.1570804,154.1738361,155.1571403,155.1571403,155.6740722,v,1,0.4995438,None,,,,,F1,1,2025-10-01_14h20.22.753,Motor sequence,,2025.1.1,59.95196648,2025-10-01 14h20.28.636565 +0530
50,c,66,2,16,c,1,0.2912776,None,16,2,66,2,,,,,155.6903934,,155.6745168,155.6903934,156.6733961,156.6733961,156.6733961,156.6733961,156.6903883,157.6733046,157.6733046,157.9739021,c,1,0.2912776,None,,,,,F1,1,2025-10-01_14h20.22.753,Motor sequence,,2025.1.1,59.95196648,2025-10-01 14h20.28.636565 +0530
-150,z,67,3,16,z,1,0.1400519,None,16,3,67,3,,,,,157.9901763,,157.9741963,157.9901763,158.9734928,158.9734928,158.9734928,158.9734928,158.9901395,159.9733,159.9733,160.1239859,z,1,0.1400519,None,,,,,F1,1,2025-10-01_14h20.22.753,Motor sequence,,2025.1.1,59.95196648,2025-10-01 14h20.28.636565 +0530
-50,x,68,0,17,x,1,0.1018782,None,17,0,68,0,,,,,160.140026,,160.1245106,160.140026,161.1232546,161.1232546,161.1232546,161.1232546,161.139782,162.1231846,162.1231846,162.2406378,x,1,0.1018782,None,,,,,F1,1,2025-10-01_14h20.22.753,Motor sequence,,2025.1.1,59.95196648,2025-10-01 14h20.28.636565 +0530
150,v,69,1,17,v,1,0.8636739,None,17,1,69,1,,,,,162.2566861,,162.241083,162.2566861,163.2399026,163.2399026,163.2399026,163.2399026,163.2566258,164.2399479,164.2399479,165.1071945,v,1,0.8636739,None,,,,,F1,1,2025-10-01_14h20.22.753,Motor sequence,,2025.1.1,59.95196648,2025-10-01 14h20.28.636565 +0530
50,c,70,2,17,c,1,0.4049661,None,17,2,70,2,,,,,165.1229344,,165.1077099,165.1229344,166.1228633,166.1228633,166.1228633,166.1228633,166.1228633,167.1227273,167.1227273,167.5401677,c,1,0.4049661,None,,,,,F1,1,2025-10-01_14h20.22.753,Motor sequence,,2025.1.1,59.95196648,2025-10-01 14h20.28.636565 +0530
-150,z,71,3,17,z,1,0.3898,None,17,3,71,3,,,,,167.5562497,,167.5406113,167.5562497,168.5396588,168.5396588,168.5396588,168.5396588,168.5563195,169.5395959,169.5395959,169.9401288,z,1,0.3898,None,,,,,F1,1,2025-10-01_14h20.22.753,Motor sequence,,2025.1.1,59.95196648,2025-10-01 14h20.28.636565 +0530
-50,x,72,0,18,x,1,0.2672212,None,18,0,72,0,,,,,169.956231,,169.9406342,169.956231,170.9395122,170.9395122,170.9395122,170.9395122,170.9560532,171.9393609,171.9393609,172.2232484,x,1,0.2672212,None,,,,,F1,1,2025-10-01_14h20.22.753,Motor sequence,,2025.1.1,59.95196648,2025-10-01 14h20.28.636565 +0530
150,v,73,1,18,v,1,0.5371124,None,18,1,73,1,,,,,172.2391961,,172.2237167,172.2391961,173.2226114,173.2226114,173.2226114,173.2226114,173.2391008,174.2225555,174.2225555,174.7725831,v,1,0.5371124,None,,,,,F1,1,2025-10-01_14h20.22.753,Motor sequence,,2025.1.1,59.95196648,2025-10-01 14h20.28.636565 +0530
50,c,74,2,18,c,1,0.2906734,None,18,2,74,2,,,,,174.7891607,,174.772844,174.7891607,175.772132,175.772132,175.772132,175.772132,175.7890191,176.7722386,176.7722386,177.0729497,c,1,0.2906734,None,,,,,F1,1,2025-10-01_14h20.22.753,Motor sequence,,2025.1.1,59.95196648,2025-10-01 14h20.28.636565 +0530
-150,z,75,3,18,z,1,0.2833483,None,18,3,75,3,,,,,177.0890494,,177.0733846,177.0890494,178.07217,178.07217,178.07217,178.07217,178.0890825,179.0722794,179.0722794,179.3563334,z,1,0.2833483,None,,,,,F1,1,2025-10-01_14h20.22.753,Motor sequence,,2025.1.1,59.95196648,2025-10-01 14h20.28.636565 +0530
-50,x,76,0,19,x,1,0.2676923,None,19,0,76,0,,,,,179.3721539,,179.356791,179.3721539,180.355632,180.355632,180.355632,180.355632,180.3721426,181.3552654,181.3552654,181.6394418,x,1,0.2676923,None,,,,,F1,1,2025-10-01_14h20.22.753,Motor sequence,,2025.1.1,59.95196648,2025-10-01 14h20.28.636565 +0530
150,v,77,1,19,v,1,0.3610194,None,19,1,77,1,,,,,181.6554497,,181.6399269,181.6554497,182.6388092,182.6388092,182.6388092,182.6388092,182.6553684,183.6551889,183.6551889,184.022608,v,1,0.3610194,None,,,,,F1,1,2025-10-01_14h20.22.753,Motor sequence,,2025.1.1,59.95196648,2025-10-01 14h20.28.636565 +0530
50,c,78,2,19,c,1,0.2633835,None,19,2,78,2,,,,,184.038469,,184.0230623,184.038469,185.0217862,185.0217862,185.0217862,185.0217862,185.0385499,186.0219271,186.0219271,186.2890589,c,1,0.2633835,None,,,,,F1,1,2025-10-01_14h20.22.753,Motor sequence,,2025.1.1,59.95196648,2025-10-01 14h20.28.636565 +0530
-150,z,79,3,19,z,1,0.7090342,None,19,3,79,3,,,,,186.3051166,,186.2895053,186.3051166,187.2885069,187.2885069,187.2885069,187.2885069,187.3051926,188.288453,188.288453,189.0054728,z,1,0.7090342,None,,,,,F1,1,2025-10-01_14h20.22.753,Motor sequence,,2025.1.1,59.95196648,2025-10-01 14h20.28.636565 +0530
-50,x,80,0,20,x,1,0.9708872,None,20,0,80,0,,,,,189.0214382,,189.005926,189.0214382,190.0050352,190.0050352,190.0050352,190.0050352,190.0216163,191.0046863,191.0046863,191.9886846,x,1,0.9708872,None,,,,,F1,1,2025-10-01_14h20.22.753,Motor sequence,,2025.1.1,59.95196648,2025-10-01 14h20.28.636565 +0530
150,v,81,1,20,v,1,0.2853997,None,20,1,81,1,,,,,192.004776,,191.9894466,192.004776,192.9880531,192.9880531,192.9880531,192.9880531,193.0045933,193.9878222,193.9878222,194.2886401,v,1,0.2853997,None,,,,,F1,1,2025-10-01_14h20.22.753,Motor sequence,,2025.1.1,59.95196648,2025-10-01 14h20.28.636565 +0530
50,c,82,2,20,c,1,0.2991258,None,20,2,82,2,,,,,194.3046249,,194.289082,194.3046249,195.2879281,195.2879281,195.2879281,195.2879281,195.3046111,196.2879443,196.2879443,196.588389,c,1,0.2991258,None,,,,,F1,1,2025-10-01_14h20.22.753,Motor sequence,,2025.1.1,59.95196648,2025-10-01 14h20.28.636565 +0530
-150,z,83,3,20,z,1,0.2712767,None,20,3,83,3,,,,,196.6045052,,196.5888481,196.6045052,197.5877959,197.5877959,197.5877959,197.5877959,197.604537,198.5878198,198.5878198,198.8716469,z,1,0.2712767,None,,,,,F1,1,2025-10-01_14h20.22.753,Motor sequence,,2025.1.1,59.95196648,2025-10-01 14h20.28.636565 +0530
-50,x,84,0,21,x,1,0.2911993,None,21,0,84,0,,,,,198.887802,,198.8720928,198.887802,199.870768,199.870768,199.870768,199.870768,199.8877365,200.870753,200.870753,201.171533,x,1,0.2911993,None,,,,,F1,1,2025-10-01_14h20.22.753,Motor sequence,,2025.1.1,59.95196648,2025-10-01 14h20.28.636565 +0530
150,v,85,1,21,v,1,0.3050704,None,21,1,85,1,,,,,201.1876611,,201.172032,201.1876611,202.1708448,202.1708448,202.1708448,202.1708448,202.187498,203.1707295,203.1707295,203.4880226,v,1,0.3050704,None,,,,,F1,1,2025-10-01_14h20.22.753,Motor sequence,,2025.1.1,59.95196648,2025-10-01 14h20.28.636565 +0530
50,c,86,2,21,c,1,0.2717575,None,21,2,86,2,,,,,203.5042013,,203.4884754,203.5042013,204.4873898,204.4873898,204.4873898,204.4873898,204.5041372,205.4872621,205.4872621,205.7711358,c,1,0.2717575,None,,,,,F1,1,2025-10-01_14h20.22.753,Motor sequence,,2025.1.1,59.95196648,2025-10-01 14h20.28.636565 +0530
-150,z,87,3,21,z,1,0.3351084,None,21,3,87,3,,,,,205.7873629,,205.7716009,205.7873629,206.7705522,206.7705522,206.7705522,206.7705522,206.7872207,207.770535,207.770535,208.1207958,z,1,0.3351084,None,,,,,F1,1,2025-10-01_14h20.22.753,Motor sequence,,2025.1.1,59.95196648,2025-10-01 14h20.28.636565 +0530
-50,x,88,0,22,x,1,0.2639319,None,22,0,88,0,,,,,208.1371368,,208.1212151,208.1371368,209.1200457,209.1200457,209.1200457,209.1200457,209.1369121,210.1202292,210.1202292,210.38779,x,1,0.2639319,None,,,,,F1,1,2025-10-01_14h20.22.753,Motor sequence,,2025.1.1,59.95196648,2025-10-01 14h20.28.636565 +0530
150,v,89,1,22,v,1,0.3192541,None,22,1,89,1,,,,,210.4035818,,210.3882472,210.4035818,211.4033391,211.4033391,211.4033391,211.4033391,211.4033391,212.3869982,212.3869982,212.72069,v,1,0.3192541,None,,,,,F1,1,2025-10-01_14h20.22.753,Motor sequence,,2025.1.1,59.95196648,2025-10-01 14h20.28.636565 +0530
50,c,90,2,22,c,1,0.2839115,None,22,2,90,2,,,,,212.7368295,,212.7211383,212.7368295,213.7202087,213.7202087,213.7202087,213.7202087,213.7369256,214.720098,214.720098,215.0206662,c,1,0.2839115,None,,,,,F1,1,2025-10-01_14h20.22.753,Motor sequence,,2025.1.1,59.95196648,2025-10-01 14h20.28.636565 +0530
-150,z,91,3,22,z,1,0.2781469,None,22,3,91,3,,,,,215.0367691,,215.0211235,215.0367691,216.0200213,216.0200213,216.0200213,216.0200213,216.0367394,217.0198403,217.0198403,217.3039114,z,1,0.2781469,None,,,,,F1,1,2025-10-01_14h20.22.753,Motor sequence,,2025.1.1,59.95196648,2025-10-01 14h20.28.636565 +0530
-50,x,92,0,23,x,1,0.2827812,None,23,0,92,0,,,,,217.3198279,,217.3044139,217.3198279,218.3032429,218.3032429,218.3032429,218.3032429,218.3198818,219.3031328,219.3031328,219.5870938,x,1,0.2827812,None,,,,,F1,1,2025-10-01_14h20.22.753,Motor sequence,,2025.1.1,59.95196648,2025-10-01 14h20.28.636565 +0530
150,v,93,1,23,v,1,0.2572848,None,23,1,93,1,,,,,219.6028928,,219.587538,219.6028928,220.6025832,220.6025832,220.6025832,220.6025832,220.6025832,221.5861851,221.5861851,221.8534448,v,1,0.2572848,None,,,,,F1,1,2025-10-01_14h20.22.753,Motor sequence,,2025.1.1,59.95196648,2025-10-01 14h20.28.636565 +0530
50,c,94,2,23,c,1,0.3081538,None,23,2,94,2,,,,,221.8695551,,221.8539131,221.8695551,222.8529305,222.8529305,222.8529305,222.8529305,222.8695047,223.8528043,223.8528043,224.1699987,c,1,0.3081538,None,,,,,F1,1,2025-10-01_14h20.22.753,Motor sequence,,2025.1.1,59.95196648,2025-10-01 14h20.28.636565 +0530
-150,z,95,3,23,z,1,0.274357,None,23,3,95,3,,,,,224.1861515,,224.1704745,224.1861515,225.1694931,225.1694931,225.1694931,225.1694931,225.1862046,226.1692193,226.1692193,226.4532838,z,1,0.274357,None,,,,,F1,1,2025-10-01_14h20.22.753,Motor sequence,,2025.1.1,59.95196648,2025-10-01 14h20.28.636565 +0530
-50,x,96,0,24,x,1,0.4941456,None,24,0,96,0,,,,,226.4690028,,226.453743,226.4690028,227.4525211,227.4525211,227.4525211,227.4525211,227.4691027,228.4526919,228.4526919,228.95319,x,1,0.4941456,None,,,,,F1,1,2025-10-01_14h20.22.753,Motor sequence,,2025.1.1,59.95196648,2025-10-01 14h20.28.636565 +0530
150,v,97,1,24,v,1,0.346158,None,24,1,97,1,,,,,228.9690874,,228.953758,228.9690874,229.9522695,229.9522695,229.9522695,229.9522695,229.9689165,230.9685504,230.9685504,231.3193479,v,1,0.346158,None,,,,,F1,1,2025-10-01_14h20.22.753,Motor sequence,,2025.1.1,59.95196648,2025-10-01 14h20.28.636565 +0530
50,c,98,2,24,c,1,0.2643122,None,24,2,98,2,,,,,231.3357349,,231.3198375,231.3357349,232.3188658,232.3188658,232.3188658,232.3188658,232.3357766,233.3190182,233.3190182,233.586149,c,1,0.2643122,None,,,,,F1,1,2025-10-01_14h20.22.753,Motor sequence,,2025.1.1,59.95196648,2025-10-01 14h20.28.636565 +0530
-150,z,99,3,24,z,1,0.0849497,None,24,3,99,3,,,,,233.6022951,,233.5865853,233.6022951,234.5855482,234.5855482,234.5855482,234.5855482,234.6020907,235.5852588,235.5852588,235.6861777,z,1,0.0849497,None,,,,,F1,1,2025-10-01_14h20.22.753,Motor sequence,,2025.1.1,59.95196648,2025-10-01 14h20.28.636565 +0530
-50,x,0,0,0,x,1,0.28296,None,,,,,0,0,0,0,235.7057862,,235.701475,235.7057862,236.6855404,236.6855404,236.6855404,236.6855404,236.7184824,237.6852608,237.6852608,237.9689441,,,,,x,1,0.28296,None,F1,1,2025-10-01_14h20.22.753,Motor sequence,,2025.1.1,59.95196648,2025-10-01 14h20.28.636565 +0530
-50,x,1,1,1,x,1,0.7590098,None,,,,,1,1,1,0,237.9853662,,237.9693941,237.9853662,238.9686429,238.9686429,238.9686429,238.9686429,238.9853186,239.9685761,239.9685761,240.7356525,,,,,x,1,0.7590098,None,F1,1,2025-10-01_14h20.22.753,Motor sequence,,2025.1.1,59.95196648,2025-10-01 14h20.28.636565 +0530
150,v,2,2,0,v,1,0.4450617,None,,,,,0,2,2,1,240.7516939,,240.7361752,240.7516939,241.7352159,241.7352159,241.7352159,241.7352159,241.7517528,242.73504,242.73504,243.1856174,,,,,v,1,0.4450617,None,F1,1,2025-10-01_14h20.22.753,Motor sequence,,2025.1.1,59.95196648,2025-10-01 14h20.28.636565 +0530
50,c,3,3,0,c,1,0.6134509,None,,,,,0,3,3,2,243.2016627,,243.1861907,243.2016627,244.1850417,244.1850417,244.1850417,244.1850417,244.2016141,245.1850195,245.1850195,245.8021041,,,,,c,1,0.6134509,None,F1,1,2025-10-01_14h20.22.753,Motor sequence,,2025.1.1,59.95196648,2025-10-01 14h20.28.636565 +0530
150,v,4,4,1,v,1,0.5843719,None,,,,,1,4,4,1,245.8182858,,245.8025576,245.8182858,246.8179658,246.8179658,246.8179658,246.8179658,246.8179658,247.8014998,247.8014998,248.4019891,,,,,v,1,0.5843719,None,F1,1,2025-10-01_14h20.22.753,Motor sequence,,2025.1.1,59.95196648,2025-10-01 14h20.28.636565 +0530
-150,z,5,5,0,z,1,0.5165912,None,,,,,0,5,5,3,248.4178987,,248.4023918,248.4178987,249.4012291,249.4012291,249.4012291,249.4012291,249.4176767,250.4177463,250.4177463,250.9349756,,,,,z,1,0.5165912,None,F1,1,2025-10-01_14h20.22.753,Motor sequence,,2025.1.1,59.95196648,2025-10-01 14h20.28.636565 +0530
-150,z,6,6,1,z,1,0.9633449,None,,,,,1,6,6,3,250.9510782,,250.9354453,250.9510782,251.9507586,251.9507586,251.9507586,251.9507586,251.9507586,252.9342564,252.9342564,253.9009968,,,,,z,1,0.9633449,None,F1,1,2025-10-01_14h20.22.753,Motor sequence,,2025.1.1,59.95196648,2025-10-01 14h20.28.636565 +0530
-150,z,7,7,2,z,1,0.7977568,None,,,,,2,7,7,3,253.9172974,,253.9011837,253.9172974,254.9005355,254.9005355,254.9005355,254.9005355,254.9175034,255.9005382,255.9005382,256.7017215,,,,,z,1,0.7977568,None,F1,1,2025-10-01_14h20.22.753,Motor sequence,,2025.1.1,59.95196648,2025-10-01 14h20.28.636565 +0530
50,c,8,8,1,c,1,0.8477121,None,,,,,1,8,8,2,256.7173558,,256.7022402,256.7173558,257.7006493,257.7006493,257.7006493,257.7006493,257.717495,258.717415,258.717415,259.5678402,,,,,c,1,0.8477121,None,F1,1,2025-10-01_14h20.22.753,Motor sequence,,2025.1.1,59.95196648,2025-10-01 14h20.28.636565 +0530
-50,x,9,9,2,x,1,0.9763519,None,,,,,2,9,9,0,259.5839779,,259.5683446,259.5839779,260.5671724,260.5671724,260.5671724,260.5671724,260.5839937,261.5669929,261.5669929,262.5509875,,,,,x,1,0.9763519,None,F1,1,2025-10-01_14h20.22.753,Motor sequence,,2025.1.1,59.95196648,2025-10-01 14h20.28.636565 +0530
-150,z,10,10,3,z,1,0.5120168,None,,,,,3,10,10,3,262.5671312,,262.5514862,262.5671312,263.5504804,263.5504804,263.5504804,263.5504804,263.5670262,264.5503642,264.5503642,265.0676202,,,,,z,1,0.5120168,None,F1,1,2025-10-01_14h20.22.753,Motor sequence,,2025.1.1,59.95196648,2025-10-01 14h20.28.636565 +0530
150,v,11,11,2,v,1,0.768336,None,,,,,2,11,11,1,265.0837521,,265.0680899,265.0837521,266.0670059,266.0670059,266.0670059,266.0670059,266.0835263,267.0668516,267.0668516,267.8506407,,,,,v,1,0.768336,None,F1,1,2025-10-01_14h20.22.753,Motor sequence,,2025.1.1,59.95196648,2025-10-01 14h20.28.636565 +0530
50,c,12,12,2,c,1,0.6636191,None,,,,,2,12,12,2,267.8668466,,267.8511003,267.8668466,268.8500508,268.8500508,268.8500508,268.8500508,268.8668204,269.850061,269.850061,270.5172982,,,,,c,1,0.6636191,None,F1,1,2025-10-01_14h20.22.753,Motor sequence,,2025.1.1,59.95196648,2025-10-01 14h20.28.636565 +0530
50,c,13,13,3,c,1,0.4609588,None,,,,,3,13,13,2,270.5332901,,270.5177552,270.5332901,271.5166065,271.5166065,271.5166065,271.5166065,271.5334125,272.5164901,272.5164901,272.9838506,,,,,c,1,0.4609588,None,F1,1,2025-10-01_14h20.22.753,Motor sequence,,2025.1.1,59.95196648,2025-10-01 14h20.28.636565 +0530
-150,z,14,14,4,z,1,0.486303,None,,,,,4,14,14,3,272.9997707,,272.9843881,272.9997707,273.9832656,273.9832656,273.9832656,273.9832656,273.9999802,274.9831708,274.9831708,275.4834752,,,,,z,1,0.486303,None,F1,1,2025-10-01_14h20.22.753,Motor sequence,,2025.1.1,59.95196648,2025-10-01 14h20.28.636565 +0530
150,v,15,15,3,v,1,0.4745028,None,,,,,3,15,15,1,275.4995625,,275.483935,275.4995625,276.4828924,276.4828924,276.4828924,276.4828924,276.499801,277.4829143,277.4829143,277.9667545,,,,,v,1,0.4745028,None,F1,1,2025-10-01_14h20.22.753,Motor sequence,,2025.1.1,59.95196648,2025-10-01 14h20.28.636565 +0530
50,c,16,16,4,c,1,0.6804308,None,,,,,4,16,16,2,277.9828713,,277.9672793,277.9828713,278.9661134,278.9661134,278.9661134,278.9661134,278.9829406,279.966029,279.966029,280.6502544,,,,,c,1,0.6804308,None,F1,1,2025-10-01_14h20.22.753,Motor sequence,,2025.1.1,59.95196648,2025-10-01 14h20.28.636565 +0530
150,v,17,17,4,v,1,0.5959714,None,,,,,4,17,17,1,280.6661137,,280.6507128,280.6661137,281.6657691,281.6657691,281.6657691,281.6657691,281.6657691,282.649167,282.649167,283.2496714,,,,,v,1,0.5959714,None,F1,1,2025-10-01_14h20.22.753,Motor sequence,,2025.1.1,59.95196648,2025-10-01 14h20.28.636565 +0530
-50,x,18,18,3,x,1,0.7946702,None,,,,,3,18,18,0,283.2658226,,283.250154,283.2658226,284.2491992,284.2491992,284.2491992,284.2491992,284.2657939,285.249097,285.249097,286.0499111,,,,,x,1,0.7946702,None,F1,1,2025-10-01_14h20.22.753,Motor sequence,,2025.1.1,59.95196648,2025-10-01 14h20.28.636565 +0530
-50,x,19,19,4,x,1,0.5384114,None,,,,,4,19,19,0,286.0657634,,286.0504129,286.0657634,287.0490868,287.0490868,287.0490868,287.0490868,287.0657131,288.0489835,288.0489835,288.5993205,,,,,x,1,0.5384114,None,F1,1,2025-10-01_14h20.22.753,Motor sequence,,2025.1.1,59.95196648,2025-10-01 14h20.28.636565 +0530
-150,z,20,20,5,z,1,0.7404148,None,,,,,5,20,20,3,288.6155663,,288.5998235,288.6155663,289.5988936,289.5988936,289.5988936,289.5988936,289.6154158,290.5988448,290.5988448,291.3494556,,,,,z,1,0.7404148,None,F1,1,2025-10-01_14h20.22.753,Motor sequence,,2025.1.1,59.95196648,2025-10-01 14h20.28.636565 +0530
-50,x,21,21,5,x,1,0.8341038,None,,,,,5,21,21,0,291.3655677,,291.3499111,291.3655677,292.3487333,292.3487333,292.3487333,292.3487333,292.3654001,293.3486965,293.3486965,294.1991604,,,,,x,1,0.8341038,None,F1,1,2025-10-01_14h20.22.753,Motor sequence,,2025.1.1,59.95196648,2025-10-01 14h20.28.636565 +0530
150,v,22,22,5,v,1,0.5137263,None,,,,,5,22,22,1,294.2151689,,294.1996177,294.2151689,295.1983034,295.1983034,295.1983034,295.1983034,295.2151173,296.1984717,296.1984717,296.7158064,,,,,v,1,0.5137263,None,F1,1,2025-10-01_14h20.22.753,Motor sequence,,2025.1.1,59.95196648,2025-10-01 14h20.28.636565 +0530
-150,z,23,23,6,z,1,0.7110631,None,,,,,6,23,23,3,296.7315959,,296.7163268,296.7315959,297.7149323,297.7149323,297.7149323,297.7149323,297.7317181,298.7149813,298.7149813,299.4322869,,,,,z,1,0.7110631,None,F1,1,2025-10-01_14h20.22.753,Motor sequence,,2025.1.1,59.95196648,2025-10-01 14h20.28.636565 +0530
150,v,24,24,6,v,1,0.5561455,None,,,,,6,24,24,1,299.4484026,,299.432777,299.4484026,300.4315559,300.4315559,300.4315559,300.4315559,300.4483552,301.4315002,301.4315002,301.9986964,,,,,v,1,0.5561455,None,F1,1,2025-10-01_14h20.22.753,Motor sequence,,2025.1.1,59.95196648,2025-10-01 14h20.28.636565 +0530
50,c,25,25,5,c,1,0.8381515,None,,,,,5,25,25,2,302.0147016,,301.9992112,302.0147016,302.9979996,302.9979996,302.9979996,302.9979996,303.0146626,303.9978669,303.9978669,304.8486195,,,,,c,1,0.8381515,None,F1,1,2025-10-01_14h20.22.753,Motor sequence,,2025.1.1,59.95196648,2025-10-01 14h20.28.636565 +0530
-50,x,26,26,6,x,1,0.7779296,None,,,,,6,26,26,0,304.864253,,304.8492109,304.864253,305.8479949,305.8479949,305.8479949,305.8479949,305.8645779,306.8477691,306.8477691,307.6317998,,,,,x,1,0.7779296,None,F1,1,2025-10-01_14h20.22.753,Motor sequence,,2025.1.1,59.95196648,2025-10-01 14h20.28.636565 +0530
-150,z,27,27,7,z,1,0.4248727,None,,,,,7,27,27,3,307.6477377,,307.6322548,307.6477377,308.6311307,308.6311307,308.6311307,308.6311307,308.6476825,309.6476703,309.6476703,310.0815238,,,,,z,1,0.4248727,None,F1,1,2025-10-01_14h20.22.753,Motor sequence,,2025.1.1,59.95196648,2025-10-01 14h20.28.636565 +0530
-150,z,28,28,8,z,1,0.4303732,None,,,,,8,28,28,3,310.0974716,,310.0820998,310.0974716,311.0809108,311.0809108,311.0809108,311.0809108,311.0977106,312.0808343,312.0808343,312.5148908,,,,,z,1,0.4303732,None,F1,1,2025-10-01_14h20.22.753,Motor sequence,,2025.1.1,59.95196648,2025-10-01 14h20.28.636565 +0530
-50,x,29,29,7,x,1,0.4638209,None,,,,,7,29,29,0,312.5309312,,312.5153448,312.5309312,313.514033,313.514033,313.514033,313.514033,313.5308486,314.5306838,314.5306838,314.9980205,,,,,x,1,0.4638209,None,F1,1,2025-10-01_14h20.22.753,Motor sequence,,2025.1.1,59.95196648,2025-10-01 14h20.28.636565 +0530
-50,x,30,30,8,x,1,0.4842674,None,,,,,8,30,30,0,315.0138272,,314.9984775,315.0138272,315.9973899,315.9973899,315.9973899,315.9973899,316.0139684,316.9973308,316.9973308,317.4977985,,,,,x,1,0.4842674,None,F1,1,2025-10-01_14h20.22.753,Motor sequence,,2025.1.1,59.95196648,2025-10-01 14h20.28.636565 +0530
-150,z,31,31,9,z,1,0.574532,None,,,,,9,31,31,3,317.5136358,,317.4983713,317.5136358,318.4972234,318.4972234,318.4972234,318.4972234,318.5135443,319.4970092,319.4970092,320.0809156,,,,,z,1,0.574532,None,F1,1,2025-10-01_14h20.22.753,Motor sequence,,2025.1.1,59.95196648,2025-10-01 14h20.28.636565 +0530
-150,z,32,32,10,z,1,0.4478172,None,,,,,10,32,32,3,320.0970154,,320.0813832,320.0970154,321.0801479,321.0801479,321.0801479,321.0801479,321.0968196,322.0803419,322.0803419,322.5307274,,,,,z,1,0.4478172,None,F1,1,2025-10-01_14h20.22.753,Motor sequence,,2025.1.1,59.95196648,2025-10-01 14h20.28.636565 +0530
-150,z,33,33,11,z,1,0.5068556,None,,,,,11,33,33,3,322.5467461,,322.5311832,322.5467461,323.5302552,323.5302552,323.5302552,323.5302552,323.5469182,324.5302347,324.5302347,325.0473837,,,,,z,1,0.5068556,None,F1,1,2025-10-01_14h20.22.753,Motor sequence,,2025.1.1,59.95196648,2025-10-01 14h20.28.636565 +0530
150,v,34,34,7,v,1,0.8133869,None,,,,,7,34,34,1,325.0633034,,325.0478916,325.0633034,326.0468448,326.0468448,326.0468448,326.0468448,326.0630911,327.0466106,327.0466106,327.8636348,,,,,v,1,0.8133869,None,F1,1,2025-10-01_14h20.22.753,Motor sequence,,2025.1.1,59.95196648,2025-10-01 14h20.28.636565 +0530
150,v,35,35,8,v,1,2.7734001,None,,,,,8,35,35,1,327.8798188,,327.8640926,327.8798188,328.863089,328.863089,328.863089,328.863089,328.8799651,329.8630332,329.8630332,332.6469597,,,,,v,1,2.7734001,None,F1,1,2025-10-01_14h20.22.753,Motor sequence,,2025.1.1,59.95196648,2025-10-01 14h20.28.636565 +0530
-150,z,36,36,12,z,1,0.388238,None,,,,,12,36,36,3,332.6629635,,332.6474191,332.6629635,333.6463138,333.6463138,333.6463138,333.6463138,333.6628944,334.6462705,334.6462705,335.0468214,,,,,z,1,0.388238,None,F1,1,2025-10-01_14h20.22.753,Motor sequence,,2025.1.1,59.95196648,2025-10-01 14h20.28.636565 +0530
150,v,37,37,9,v,1,0.4570397,None,,,,,9,37,37,1,335.0627723,,335.047285,335.0627723,336.0459282,336.0459282,336.0459282,336.0459282,336.0627402,337.0460986,337.0460986,337.5132427,,,,,v,1,0.4570397,None,F1,1,2025-10-01_14h20.22.753,Motor sequence,,2025.1.1,59.95196648,2025-10-01 14h20.28.636565 +0530
50,c,38,38,6,c,1,1.0883502,None,,,,,6,38,38,2,337.5292372,,337.5139721,337.5292372,338.512532,338.512532,338.512532,338.512532,338.5290694,339.5124542,339.5124542,340.6130294,,,,,c,1,1.0883502,None,F1,1,2025-10-01_14h20.22.753,Motor sequence,,2025.1.1,59.95196648,2025-10-01 14h20.28.636565 +0530
50,c,39,39,7,c,1,0.7518377,None,,,,,7,39,39,2,340.6290896,,340.6135211,340.6290896,341.6124133,341.6124133,341.6124133,341.6124133,341.6290223,342.612369,342.612369,343.3796451,,,,,c,1,0.7518377,None,F1,1,2025-10-01_14h20.22.753,Motor sequence,,2025.1.1,59.95196648,2025-10-01 14h20.28.636565 +0530
-50,x,40,40,9,x,1,0.6785476,None,,,,,9,40,40,0,343.3956227,,343.3801398,343.3956227,344.3789847,344.3789847,344.3789847,344.3789847,344.3956688,345.378953,345.378953,346.0624972,,,,,x,1,0.6785476,None,F1,1,2025-10-01_14h20.22.753,Motor sequence,,2025.1.1,59.95196648,2025-10-01 14h20.28.636565 +0530
-50,x,41,41,10,x,1,0.5049665,None,,,,,10,41,41,0,346.0787746,,346.0629598,346.0787746,347.0619737,347.0619737,347.0619737,347.0619737,347.0787614,348.0618538,348.0618538,348.579295,,,,,x,1,0.5049665,None,F1,1,2025-10-01_14h20.22.753,Motor sequence,,2025.1.1,59.95196648,2025-10-01 14h20.28.636565 +0530
-50,x,42,42,11,x,1,0.4619495,None,,,,,11,42,42,0,348.5952825,,348.5797604,348.5952825,349.5786814,349.5786814,349.5786814,349.5786814,349.5952102,350.5786225,350.5786225,351.0456661,,,,,x,1,0.4619495,None,F1,1,2025-10-01_14h20.22.753,Motor sequence,,2025.1.1,59.95196648,2025-10-01 14h20.28.636565 +0530
150,v,43,43,10,v,1,0.682947,None,,,,,10,43,43,1,351.0618457,,351.0461685,351.0618457,352.0451106,352.0451106,352.0451106,352.0451106,352.0615449,353.0451326,353.0451326,353.7292749,,,,,v,1,0.682947,None,F1,1,2025-10-01_14h20.22.753,Motor sequence,,2025.1.1,59.95196648,2025-10-01 14h20.28.636565 +0530
-50,x,44,44,12,x,1,0.7359166,None,,,,,12,44,44,0,353.744836,,353.7297473,353.744836,354.7450464,354.7450464,354.7450464,354.7450464,354.7450464,355.744856,355.744856,356.4954933,,,,,x,1,0.7359166,None,F1,1,2025-10-01_14h20.22.753,Motor sequence,,2025.1.1,59.95196648,2025-10-01 14h20.28.636565 +0530
50,c,45,45,8,c,1,0.799784,None,,,,,8,45,45,2,356.5115382,,356.4959544,356.5115382,357.4948075,357.4948075,357.4948075,357.4948075,357.5114632,358.4947131,358.4947131,359.2953075,,,,,c,1,0.799784,None,F1,1,2025-10-01_14h20.22.753,Motor sequence,,2025.1.1,59.95196648,2025-10-01 14h20.28.636565 +0530
50,c,46,46,9,c,1,0.7185063,None,,,,,9,46,46,2,359.3111647,,359.2957644,359.3111647,360.2947183,360.2947183,360.2947183,360.2947183,360.3111932,361.2946395,361.2946395,362.0285117,,,,,c,1,0.7185063,None,F1,1,2025-10-01_14h20.22.753,Motor sequence,,2025.1.1,59.95196648,2025-10-01 14h20.28.636565 +0530
150,v,47,47,11,v,1,0.5636866,None,,,,,11,47,47,1,362.0445852,,362.0290066,362.0445852,363.0277628,363.0277628,363.0277628,363.0277628,363.0443071,364.0278041,364.0278041,364.5951265,,,,,v,1,0.5636866,None,F1,1,2025-10-01_14h20.22.753,Motor sequence,,2025.1.1,59.95196648,2025-10-01 14h20.28.636565 +0530
50,c,48,48,10,c,1,0.6605657,None,,,,,10,48,48,2,364.6109995,,364.595578,364.6109995,365.594251,365.594251,365.594251,365.594251,365.6108545,366.6108071,366.6108071,367.2781086,,,,,c,1,0.6605657,None,F1,1,2025-10-01_14h20.22.753,Motor sequence,,2025.1.1,59.95196648,2025-10-01 14h20.28.636565 +0530
50,c,49,49,11,c,1,0.4572642,None,,,,,11,49,49,2,367.2940444,,367.2785777,367.2940444,368.2775539,368.2775539,368.2775539,368.2775539,368.2940975,369.2774394,369.2774394,369.7446415,,,,,c,1,0.4572642,None,F1,1,2025-10-01_14h20.22.753,Motor sequence,,2025.1.1,59.95196648,2025-10-01 14h20.28.636565 +0530
-150,z,50,50,13,z,1,0.938207,None,,,,,13,50,50,3,369.7607281,,369.7450897,369.7607281,370.7438459,370.7438459,370.7438459,370.7438459,370.7604319,371.7439981,371.7439981,372.6945405,,,,,z,1,0.938207,None,F1,1,2025-10-01_14h20.22.753,Motor sequence,,2025.1.1,59.95196648,2025-10-01 14h20.28.636565 +0530
50,c,51,51,12,c,1,0.6668667,None,,,,,12,51,51,2,372.7105298,,372.6949964,372.7105298,373.693739,373.693739,373.693739,373.693739,373.7104609,374.6937725,374.6937725,375.3776459,,,,,c,1,0.6668667,None,F1,1,2025-10-01_14h20.22.753,Motor sequence,,2025.1.1,59.95196648,2025-10-01 14h20.28.636565 +0530
-150,z,52,52,14,z,1,0.5385271,None,,,,,14,52,52,3,375.3937706,,375.3781548,375.3937706,376.377005,376.377005,376.377005,376.377005,376.3934974,377.3767517,377.3767517,377.9275424,,,,,z,1,0.5385271,None,F1,1,2025-10-01_14h20.22.753,Motor sequence,,2025.1.1,59.95196648,2025-10-01 14h20.28.636565 +0530
-50,x,53,53,13,x,1,0.5306945,None,,,,,13,53,53,0,377.9434586,,377.9280168,377.9434586,378.926955,378.926955,378.926955,378.926955,378.9433326,379.926646,379.926646,380.4607748,,,,,x,1,0.5306945,None,F1,1,2025-10-01_14h20.22.753,Motor sequence,,2025.1.1,59.95196648,2025-10-01 14h20.28.636565 +0530
-150,z,54,54,15,z,1,0.5610655,None,,,,,15,54,54,3,380.4767955,,380.4612364,380.4767955,381.4600183,381.4600183,381.4600183,381.4600183,381.4766236,382.4598523,382.4598523,383.0272499,,,,,z,1,0.5610655,None,F1,1,2025-10-01_14h20.22.753,Motor sequence,,2025.1.1,59.95196648,2025-10-01 14h20.28.636565 +0530
-50,x,55,55,14,x,1,0.6222233,None,,,,,14,55,55,0,383.0433366,,383.0277683,383.0433366,384.0264034,384.0264034,384.0264034,384.0264034,384.0432995,385.0264989,385.0264989,385.6602296,,,,,x,1,0.6222233,None,F1,1,2025-10-01_14h20.22.753,Motor sequence,,2025.1.1,59.95196648,2025-10-01 14h20.28.636565 +0530
150,v,56,56,12,v,1,1.2831328,None,,,,,12,56,56,1,385.6763127,,385.6606923,385.6763127,386.6595884,386.6595884,386.6595884,386.6595884,386.6761876,387.6595616,387.6595616,388.959956,,,,,v,1,1.2831328,None,F1,1,2025-10-01_14h20.22.753,Motor sequence,,2025.1.1,59.95196648,2025-10-01 14h20.28.636565 +0530
150,v,57,57,13,v,1,0.3913507,None,,,,,13,57,57,1,388.9760169,,388.9604349,388.9760169,389.9594902,389.9594902,389.9594902,389.9594902,389.9761185,390.9593178,390.9593178,391.3595314,,,,,v,1,0.3913507,None,F1,1,2025-10-01_14h20.22.753,Motor sequence,,2025.1.1,59.95196648,2025-10-01 14h20.28.636565 +0530
50,c,58,58,13,c,1,0.6205358,None,,,,,13,58,58,2,391.3757192,,391.3597681,391.3757192,392.359339,392.359339,392.359339,392.359339,392.3759023,393.3590963,393.3590963,393.9931135,,,,,c,1,0.6205358,None,F1,1,2025-10-01_14h20.22.753,Motor sequence,,2025.1.1,59.95196648,2025-10-01 14h20.28.636565 +0530
-50,x,59,59,15,x,1,0.9905687,None,,,,,15,59,59,0,394.008983,,393.9935798,394.008983,394.9925895,394.9925895,394.9925895,394.9925895,395.0091255,395.992555,395.992555,396.9928858,,,,,x,1,0.9905687,None,F1,1,2025-10-01_14h20.22.753,Motor sequence,,2025.1.1,59.95196648,2025-10-01 14h20.28.636565 +0530
-50,x,60,60,16,x,1,0.689358,None,,,,,16,60,60,0,397.0089688,,396.9933845,397.0089688,397.9923322,397.9923322,397.9923322,397.9923322,398.0090456,398.9921478,398.9921478,399.6927921,,,,,x,1,0.689358,None,F1,1,2025-10-01_14h20.22.753,Motor sequence,,2025.1.1,59.95196648,2025-10-01 14h20.28.636565 +0530
-50,x,61,61,17,x,1,0.4883267,None,,,,,17,61,61,0,399.7087768,,399.6932831,399.7087768,400.692274,400.692274,400.692274,400.692274,400.7087245,401.6920945,401.6920945,402.1926847,,,,,x,1,0.4883267,None,F1,1,2025-10-01_14h20.22.753,Motor sequence,,2025.1.1,59.95196648,2025-10-01 14h20.28.636565 +0530
50,c,62,62,14,c,1,0.9215212,None,,,,,14,62,62,2,402.2084861,,402.1931396,402.2084861,403.191995,403.191995,403.191995,403.191995,403.2085794,404.1920446,404.1920446,405.1259186,,,,,c,1,0.9215212,None,F1,1,2025-10-01_14h20.22.753,Motor sequence,,2025.1.1,59.95196648,2025-10-01 14h20.28.636565 +0530
150,v,63,63,14,v,1,0.6742062,None,,,,,14,63,63,1,405.1418252,,405.1264753,405.1418252,406.1418072,406.1418072,406.1418072,406.1418072,406.1418072,407.1251944,407.1251944,407.8088301,,,,,v,1,0.6742062,None,F1,1,2025-10-01_14h20.22.753,Motor sequence,,2025.1.1,59.95196648,2025-10-01 14h20.28.636565 +0530
150,v,65,65,15,v,1,0.5110571,None,,,,,15,65,65,1,410.2248444,,410.2091886,410.2248444,411.2081461,411.2081461,411.2081461,411.2081461,411.2247792,412.2081394,412.2081394,412.7252972,,,,,v,1,0.5110571,None,F1,1,2025-10-01_14h20.22.753,Motor sequence,,2025.1.1,59.95196648,2025-10-01 14h20.28.636565 +0530
50,c,66,66,15,c,1,0.492206,None,,,,,15,66,66,2,412.741513,,412.7257581,412.741513,413.7247729,413.7247729,413.7247729,413.7247729,413.7414405,414.7246302,414.7246302,415.2252662,,,,,c,1,0.492206,None,F1,1,2025-10-01_14h20.22.753,Motor sequence,,2025.1.1,59.95196648,2025-10-01 14h20.28.636565 +0530
-50,x,67,67,18,x,1,0.457786,None,,,,,18,67,67,0,415.2411817,,415.2257338,415.2411817,416.2413049,416.2413049,416.2413049,416.2413049,416.2413049,417.2412998,417.2412998,417.7083155,,,,,x,1,0.457786,None,F1,1,2025-10-01_14h20.22.753,Motor sequence,,2025.1.1,59.95196648,2025-10-01 14h20.28.636565 +0530
-50,x,68,68,19,x,1,0.4342464,None,,,,,19,68,68,0,417.7243191,,417.7087733,417.7243191,418.7077741,418.7077741,418.7077741,418.7077741,418.7245069,419.7076217,419.7076217,420.1582224,,,,,x,1,0.4342464,None,F1,1,2025-10-01_14h20.22.753,Motor sequence,,2025.1.1,59.95196648,2025-10-01 14h20.28.636565 +0530
50,c,69,69,16,c,1,0.4326404,None,,,,,16,69,69,2,420.1741608,,420.1589141,420.1741608,421.1575129,421.1575129,421.1575129,421.1575129,421.1742902,422.1575505,422.1575505,422.5913769,,,,,c,1,0.4326404,None,F1,1,2025-10-01_14h20.22.753,Motor sequence,,2025.1.1,59.95196648,2025-10-01 14h20.28.636565 +0530
150,v,70,70,16,v,1,0.6789322,None,,,,,16,70,70,1,422.6075345,,422.591843,422.6075345,423.590617,423.590617,423.590617,423.590617,423.6073665,424.5905686,424.5905686,425.2744761,,,,,v,1,0.6789322,None,F1,1,2025-10-01_14h20.22.753,Motor sequence,,2025.1.1,59.95196648,2025-10-01 14h20.28.636565 +0530
-50,x,71,71,20,x,1,0.6431582,None,,,,,20,71,71,0,425.2904627,,425.2750111,425.2904627,426.2737674,426.2737674,426.2737674,426.2737674,426.290705,427.2739764,427.2739764,427.9243015,,,,,x,1,0.6431582,None,F1,1,2025-10-01_14h20.22.753,Motor sequence,,2025.1.1,59.95196648,2025-10-01 14h20.28.636565 +0530
-150,z,72,72,17,z,1,2.0686888,None,,,,,17,72,72,3,427.9404879,,427.924799,427.9404879,428.9237482,428.9237482,428.9237482,428.9237482,428.9404584,429.9238164,429.9238164,432.0074423,,,,,z,1,2.0686888,None,F1,1,2025-10-01_14h20.22.753,Motor sequence,,2025.1.1,59.95196648,2025-10-01 14h20.28.636565 +0530
150,v,73,73,17,v,1,0.6595669,None,,,,,17,73,73,1,432.0236923,,432.0079591,432.0236923,433.0068908,433.0068908,433.0068908,433.0068908,433.0235994,434.0067047,434.0067047,434.6739777,,,,,v,1,0.6595669,None,F1,1,2025-10-01_14h20.22.753,Motor sequence,,2025.1.1,59.95196648,2025-10-01 14h20.28.636565 +0530
50,c,75,75,17,c,1,0.597027,None,,,,,17,75,75,2,437.6232023,,437.6076105,437.6232023,438.6065649,438.6065649,438.6065649,438.6065649,438.6233092,439.6063597,439.6063597,440.2068927,,,,,c,1,0.597027,None,F1,1,2025-10-01_14h20.22.753,Motor sequence,,2025.1.1,59.95196648,2025-10-01 14h20.28.636565 +0530
150,v,76,76,18,v,1,0.5004405,None,,,,,18,76,76,1,440.2230509,,440.2073467,440.2230509,441.2063002,441.2063002,441.2063002,441.2063002,441.2231234,442.2063277,442.2063277,442.7235778,,,,,v,1,0.5004405,None,F1,1,2025-10-01_14h20.22.753,Motor sequence,,2025.1.1,59.95196648,2025-10-01 14h20.28.636565 +0530
150,v,77,77,19,v,1,0.6606654,None,,,,,19,77,77,1,442.739418,,442.724189,442.739418,443.7228453,443.7228453,443.7228453,443.7228453,443.739317,444.7395028,444.7395028,445.4066434,,,,,v,1,0.6606654,None,F1,1,2025-10-01_14h20.22.753,Motor sequence,,2025.1.1,59.95196648,2025-10-01 14h20.28.636565 +0530
-50,x,78,78,21,x,1,0.6526403,None,,,,,21,78,78,0,445.4227716,,445.4070914,445.4227716,446.4060845,446.4060845,446.4060845,446.4060845,446.4226786,447.4058083,447.4058083,448.073186,,,,,x,1,0.6526403,None,F1,1,2025-10-01_14h20.22.753,Motor sequence,,2025.1.1,59.95196648,2025-10-01 14h20.28.636565 +0530
50,c,79,79,18,c,1,0.8055621,None,,,,,18,79,79,2,448.0893757,,448.0736337,448.0893757,449.0724444,449.0724444,449.0724444,449.0724444,449.0890634,450.0724302,450.0724302,450.8895764,,,,,c,1,0.8055621,None,F1,1,2025-10-01_14h20.22.753,Motor sequence,,2025.1.1,59.95196648,2025-10-01 14h20.28.636565 +0530
-150,z,80,80,19,z,1,0.8816467,None,,,,,19,80,80,3,450.9055092,,450.8900336,450.9055092,451.8890117,451.8890117,451.8890117,451.8890117,451.9057399,452.888979,452.888979,453.7726499,,,,,z,1,0.8816467,None,F1,1,2025-10-01_14h20.22.753,Motor sequence,,2025.1.1,59.95196648,2025-10-01 14h20.28.636565 +0530
-150,z,81,81,20,z,1,0.6887714,None,,,,,20,81,81,3,453.7887856,,453.7731231,453.7887856,454.772176,454.772176,454.772176,454.772176,454.7889667,455.7722132,455.7722132,456.4726834,,,,,z,1,0.6887714,None,F1,1,2025-10-01_14h20.22.753,Motor sequence,,2025.1.1,59.95196648,2025-10-01 14h20.28.636565 +0530
150,v,82,82,20,v,1,0.5410058,None,,,,,20,82,82,1,456.4888286,,456.473137,456.4888286,457.4721003,457.4721003,457.4721003,457.4721003,457.4888206,458.4720709,458.4720709,459.0226187,,,,,v,1,0.5410058,None,F1,1,2025-10-01_14h20.22.753,Motor sequence,,2025.1.1,59.95196648,2025-10-01 14h20.28.636565 +0530
-50,x,83,83,22,x,1,0.7673246,None,,,,,22,83,83,0,459.038707,,459.0231184,459.038707,460.0218416,460.0218416,460.0218416,460.0218416,460.0385697,461.0385678,461.0385678,461.8224333,,,,,x,1,0.7673246,None,F1,1,2025-10-01_14h20.22.753,Motor sequence,,2025.1.1,59.95196648,2025-10-01 14h20.28.636565 +0530
-150,z,84,84,21,z,1,0.8731403,None,,,,,21,84,84,3,461.8385156,,461.8228879,461.8385156,462.8216024,462.8216024,462.8216024,462.8216024,462.8384352,463.8216411,463.8216411,464.7053294,,,,,z,1,0.8731403,None,F1,1,2025-10-01_14h20.22.753,Motor sequence,,2025.1.1,59.95196648,2025-10-01 14h20.28.636565 +0530
150,v,85,85,21,v,1,0.6048182,None,,,,,21,85,85,1,464.7215549,,464.7058148,464.7215549,465.704651,465.704651,465.704651,465.704651,465.7216439,466.704857,466.704857,467.3221271,,,,,v,1,0.6048182,None,F1,1,2025-10-01_14h20.22.753,Motor sequence,,2025.1.1,59.95196648,2025-10-01 14h20.28.636565 +0530
-50,x,86,86,23,x,1,0.7146006,None,,,,,23,86,86,0,467.3382947,,467.3225768,467.3382947,468.3214735,468.3214735,468.3214735,468.3214735,468.3381389,469.3214236,469.3214236,470.0379789,,,,,x,1,0.7146006,None,F1,1,2025-10-01_14h20.22.753,Motor sequence,,2025.1.1,59.95196648,2025-10-01 14h20.28.636565 +0530
-50,x,87,87,24,x,1,0.492063,None,,,,,24,87,87,0,470.0544968,,470.0381929,470.0544968,471.0376548,471.0376548,471.0376548,471.0376548,471.0543509,472.0380166,472.0380166,472.5382326,,,,,x,1,0.492063,None,F1,1,2025-10-01_14h20.22.753,Motor sequence,,2025.1.1,59.95196648,2025-10-01 14h20.28.636565 +0530
50,c,88,88,19,c,1,0.7306093,None,,,,,19,88,88,2,472.5543875,,472.538701,472.5543875,473.5375321,473.5375321,473.5375321,473.5375321,473.554341,474.5376611,474.5376611,475.271695,,,,,c,1,0.7306093,None,F1,1,2025-10-01_14h20.22.753,Motor sequence,,2025.1.1,59.95196648,2025-10-01 14h20.28.636565 +0530
50,c,89,89,20,c,1,0.9006704,None,,,,,20,89,89,2,475.2876699,,475.2721568,475.2876699,476.2876678,476.2876678,476.2876678,476.2876678,476.2876678,477.270671,477.270671,478.1879199,,,,,c,1,0.9006704,None,F1,1,2025-10-01_14h20.22.753,Motor sequence,,2025.1.1,59.95196648,2025-10-01 14h20.28.636565 +0530
-150,z,90,90,22,z,1,1.2589493,None,,,,,22,90,90,3,478.2039255,,478.1884324,478.2039255,479.1873924,479.1873924,479.1873924,479.1873924,479.20398,480.1873077,480.1873077,481.4544025,,,,,z,1,1.2589493,None,F1,1,2025-10-01_14h20.22.753,Motor sequence,,2025.1.1,59.95196648,2025-10-01 14h20.28.636565 +0530
-150,z,91,91,23,z,1,0.5008381,None,,,,,23,91,91,3,481.4705657,,481.4548506,481.4705657,482.4536552,482.4536552,482.4536552,482.4536552,482.4704361,483.4536553,483.4536553,483.9709037,,,,,z,1,0.5008381,None,F1,1,2025-10-01_14h20.22.753,Motor sequence,,2025.1.1,59.95196648,2025-10-01 14h20.28.636565 +0530
50,c,92,92,21,c,1,0.6617783,None,,,,,21,92,92,2,483.987094,,483.9713578,483.987094,484.9704577,484.9704577,484.9704577,484.9704577,484.98715,485.970372,485.970372,486.6374813,,,,,c,1,0.6617783,None,F1,1,2025-10-01_14h20.22.753,Motor sequence,,2025.1.1,59.95196648,2025-10-01 14h20.28.636565 +0530
50,c,93,93,22,c,1,0.6048403,None,,,,,22,93,93,2,486.6535995,,486.6379319,486.6535995,487.6369943,487.6369943,487.6369943,487.6369943,487.6535365,488.6369175,488.6369175,489.2537477,,,,,c,1,0.6048403,None,F1,1,2025-10-01_14h20.22.753,Motor sequence,,2025.1.1,59.95196648,2025-10-01 14h20.28.636565 +0530
150,v,94,94,22,v,1,0.6313322,None,,,,,22,94,94,1,489.2701096,,489.2541988,489.2701096,490.2534073,490.2534073,490.2534073,490.2534073,490.2701597,491.2533378,491.2533378,491.8872134,,,,,v,1,0.6313322,None,F1,1,2025-10-01_14h20.22.753,Motor sequence,,2025.1.1,59.95196648,2025-10-01 14h20.28.636565 +0530
150,v,95,95,23,v,1,0.6409236,None,,,,,23,95,95,1,491.9030132,,491.8876728,491.9030132,492.8865835,492.8865835,492.8865835,492.8865835,492.9030608,493.886279,493.886279,494.5370225,,,,,v,1,0.6409236,None,F1,1,2025-10-01_14h20.22.753,Motor sequence,,2025.1.1,59.95196648,2025-10-01 14h20.28.636565 +0530
150,v,96,96,24,v,1,0.7049801,None,,,,,24,96,96,1,494.5529496,,494.5375393,494.5529496,495.5365223,495.5365223,495.5365223,495.5365223,495.5530827,496.5364539,496.5364539,497.2535505,,,,,v,1,0.7049801,None,F1,1,2025-10-01_14h20.22.753,Motor sequence,,2025.1.1,59.95196648,2025-10-01 14h20.28.636565 +0530
50,c,97,97,23,c,1,1.5385003,None,,,,,23,97,97,2,497.2696985,,497.253998,497.2696985,498.252915,498.252915,498.252915,498.252915,498.2695402,499.2527759,499.2527759,500.8033192,,,,,c,1,1.5385003,None,F1,1,2025-10-01_14h20.22.753,Motor sequence,,2025.1.1,59.95196648,2025-10-01 14h20.28.636565 +0530
-150,z,98,98,24,z,1,0.9569871,None,,,,,24,98,98,3,500.8194788,,500.8037708,500.8194788,501.8027116,501.8027116,501.8027116,501.8027116,501.8193639,502.8025713,502.8025713,503.7698931,,,,,z,1,0.9569871,None,F1,1,2025-10-01_14h20.22.753,Motor sequence,,2025.1.1,59.95196648,2025-10-01 14h20.28.636565 +0530
50,c,99,99,24,c,1,1.68851,None,,,,,24,99,99,2,503.7859889,,503.7703469,503.7859889,504.7690821,504.7690821,504.7690821,504.7690821,504.7859239,505.7691794,505.7691794,507.4696627,,,,,c,1,1.68851,None,F1,1,2025-10-01_14h20.22.753,Motor sequence,,2025.1.1,59.95196648,2025-10-01 14h20.28.636565 +0530
