pos,corr_resp,thisN,thisTrialN,thisRepN,key_resp.keys,key_resp.corr,key_resp.rt,key_resp.duration,trials.thisRepN,trials.thisTrialN,trials.thisN,trials.thisIndex,trials_2.thisRepN,trials_2.thisTrialN,trials_2.thisN,trials_2.thisIndex,thisRow.t,notes,trial.started,fixtion.started,line1.started,line2.started,line3.started,line4.started,fixtion.stopped,probe.started,key_resp.started,trial.stopped,trials.key_resp.keys,trials.key_resp.corr,trials.key_resp.rt,trials.key_resp.duration,trials_2.key_resp.keys,trials_2.key_resp.corr,trials_2.key_resp.rt,trials_2.key_resp.duration,participant,session,date,expName,expVersion,psychopyVersion,frameRate,expStart
-50,x,0,0,0,x,1,0.7970104,None,0,0,0,0,,,,,0.0194973,,0.0130519,0.0194973,1.0079438,1.0079438,1.0079438,1.0079438,1.0244402,2.0076327,2.0076327,2.831641,x,1,0.7970104,None,,,,,F2,1,2025-10-01_18h50.07.105,Motor sequence,,2025.1.1,59.85525807,2025-10-01 18h51.03.497985 +0530
150,v,1,1,0,v,1,0.6610309,None,0,1,1,1,,,,,2.8365132,,2.8319078,2.8365132,3.8408597,3.8408597,3.8408597,3.8408597,3.8408597,4.8406006,4.8406006,5.5080125,v,1,0.6610309,None,,,,,F2,1,2025-10-01_18h50.07.105,Motor sequence,,2025.1.1,59.85525807,2025-10-01 18h51.03.497985 +0530
50,c,2,2,0,c,1,0.6428812,None,0,2,2,2,,,,,5.5241238,,5.5085175,5.5241238,6.5074203,6.5074203,6.5074203,6.5074203,6.5240887,7.5072022,7.5072022,8.1576925,c,1,0.6428812,None,,,,,F2,1,2025-10-01_18h50.07.105,Motor sequence,,2025.1.1,59.85525807,2025-10-01 18h51.03.497985 +0530
-150,z,3,3,0,z,1,0.6841921,None,0,3,3,3,,,,,8.1741442,,8.1581353,8.1741442,9.1574789,9.1574789,9.1574789,9.1574789,9.1735916,10.1572513,10.1572513,10.8577903,z,1,0.6841921,None,,,,,F2,1,2025-10-01_18h50.07.105,Motor sequence,,2025.1.1,59.85525807,2025-10-01 18h51.03.497985 +0530
-50,x,4,0,1,x,1,0.5728776,None,1,0,4,0,,,,,10.8738133,,10.8582594,10.8738133,11.8570578,11.8570578,11.8570578,11.8570578,11.8735636,12.8571779,12.8571779,13.4406982,x,1,0.5728776,None,,,,,F2,1,2025-10-01_18h50.07.105,Motor sequence,,2025.1.1,59.85525807,2025-10-01 18h51.03.497985 +0530
150,v,5,1,1,v,1,0.3817706,None,1,1,5,1,,,,,13.4570842,,13.4411414,13.4570842,14.4403698,14.4403698,14.4403698,14.4403698,14.4568684,15.440068,15.440068,15.8242779,v,1,0.3817706,None,,,,,F2,1,2025-10-01_18h50.07.105,Motor sequence,,2025.1.1,59.85525807,2025-10-01 18h51.03.497985 +0530
50,c,6,2,1,c,1,0.6753555,None,1,2,6,2,,,,,15.8399808,,15.8249795,15.8399808,16.8235475,16.8235475,16.8235475,16.8235475,16.8400524,17.8400661,17.8400661,18.5239593,c,1,0.6753555,None,,,,,F2,1,2025-10-01_18h50.07.105,Motor sequence,,2025.1.1,59.85525807,2025-10-01 18h51.03.497985 +0530
-150,z,7,3,1,z,1,0.4523144,None,1,3,7,3,,,,,18.5399309,,18.5244862,18.5399309,19.5236063,19.5236063,19.5236063,19.5236063,19.5399599,20.5398207,20.5398207,21.0071196,z,1,0.4523144,None,,,,,F2,1,2025-10-01_18h50.07.105,Motor sequence,,2025.1.1,59.85525807,2025-10-01 18h51.03.497985 +0530
-50,x,8,0,2,x,1,0.567566,None,2,0,8,0,,,,,21.0232411,,21.0075637,21.0232411,22.0063704,22.0063704,22.0063704,22.0063704,22.0231388,23.023079,23.023079,23.6068196,x,1,0.567566,None,,,,,F2,1,2025-10-01_18h50.07.105,Motor sequence,,2025.1.1,59.85525807,2025-10-01 18h51.03.497985 +0530
150,v,9,1,2,v,1,0.5313951,None,2,1,9,1,,,,,23.6226829,,23.607268,23.6226829,24.606155,24.606155,24.606155,24.606155,24.6227847,25.6062376,25.6062376,26.1401721,v,1,0.5313951,None,,,,,F2,1,2025-10-01_18h50.07.105,Motor sequence,,2025.1.1,59.85525807,2025-10-01 18h51.03.497985 +0530
50,c,10,2,2,c,1,0.971995,None,2,2,10,2,,,,,26.1562228,,26.1406278,26.1562228,27.1392937,27.1392937,27.1392937,27.1392937,27.1559245,28.139373,28.139373,29.1232522,c,1,0.971995,None,,,,,F2,1,2025-10-01_18h50.07.105,Motor sequence,,2025.1.1,59.85525807,2025-10-01 18h51.03.497985 +0530
-150,z,11,3,2,z,1,0.8279448,None,2,3,11,3,,,,,29.1391929,,29.1236969,29.1391929,30.122679,30.122679,30.122679,30.122679,30.1391303,31.1225327,31.1225327,31.9564561,z,1,0.8279448,None,,,,,F2,1,2025-10-01_18h50.07.105,Motor sequence,,2025.1.1,59.85525807,2025-10-01 18h51.03.497985 +0530
-50,x,12,0,3,x,1,0.6784639,None,3,0,12,0,,,,,31.9725023,,31.9569013,31.9725023,32.9558458,32.9558458,32.9558458,32.9558458,32.972533,33.9555106,33.9555106,34.6394352,x,1,0.6784639,None,,,,,F2,1,2025-10-01_18h50.07.105,Motor sequence,,2025.1.1,59.85525807,2025-10-01 18h51.03.497985 +0530
150,v,13,1,3,v,1,0.7573297,None,3,1,13,1,,,,,34.6555432,,34.6398722,34.6555432,35.6385116,35.6385116,35.6385116,35.6385116,35.655469,36.6388779,36.6388779,37.4058945,v,1,0.7573297,None,,,,,F2,1,2025-10-01_18h50.07.105,Motor sequence,,2025.1.1,59.85525807,2025-10-01 18h51.03.497985 +0530
50,c,14,2,3,c,1,0.6572424,None,3,2,14,2,,,,,37.4219786,,37.4063475,37.4219786,38.4053909,38.4053909,38.4053909,38.4053909,38.4219095,39.4053613,39.4053613,40.072391,c,1,0.6572424,None,,,,,F2,1,2025-10-01_18h50.07.105,Motor sequence,,2025.1.1,59.85525807,2025-10-01 18h51.03.497985 +0530
-150,z,15,3,3,z,1,0.5586509,None,3,3,15,3,,,,,40.0885532,,40.0728509,40.0885532,41.0719132,41.0719132,41.0719132,41.0719132,41.0883855,42.071886,42.071886,42.6391763,z,1,0.5586509,None,,,,,F2,1,2025-10-01_18h50.07.105,Motor sequence,,2025.1.1,59.85525807,2025-10-01 18h51.03.497985 +0530
-50,x,16,0,4,x,1,0.6340834,None,4,0,16,0,,,,,42.655025,,42.6396314,42.655025,43.638405,43.638405,43.638405,43.638405,43.6551421,44.6384548,44.6384548,45.288936,x,1,0.6340834,None,,,,,F2,1,2025-10-01_18h50.07.105,Motor sequence,,2025.1.1,59.85525807,2025-10-01 18h51.03.497985 +0530
150,v,17,1,4,v,1,0.7885164,None,4,1,17,1,,,,,45.3050852,,45.2894145,45.3050852,46.2883998,46.2883998,46.2883998,46.2883998,46.3051895,47.2881318,47.2881318,48.088856,v,1,0.7885164,None,,,,,F2,1,2025-10-01_18h50.07.105,Motor sequence,,2025.1.1,59.85525807,2025-10-01 18h51.03.497985 +0530
50,c,18,2,4,c,1,0.680432,None,4,2,18,2,,,,,48.1048069,,48.0893782,48.1048069,49.0880882,49.0880882,49.0880882,49.0880882,49.1047561,50.0877867,50.0877867,50.7721958,c,1,0.680432,None,,,,,F2,1,2025-10-01_18h50.07.105,Motor sequence,,2025.1.1,59.85525807,2025-10-01 18h51.03.497985 +0530
-150,z,19,3,4,z,1,1.4216146,None,4,3,19,3,,,,,50.7879947,,50.7726555,50.7879947,51.7713697,51.7713697,51.7713697,51.7713697,51.7879681,52.7715251,52.7715251,54.2051173,z,1,1.4216146,None,,,,,F2,1,2025-10-01_18h50.07.105,Motor sequence,,2025.1.1,59.85525807,2025-10-01 18h51.03.497985 +0530
-50,x,20,0,5,x,1,0.8134884,None,5,0,20,0,,,,,54.2209772,,54.2055646,54.2209772,55.2043595,55.2043595,55.2043595,55.2043595,55.2212558,56.220977,56.220977,57.0380152,x,1,0.8134884,None,,,,,F2,1,2025-10-01_18h50.07.105,Motor sequence,,2025.1.1,59.85525807,2025-10-01 18h51.03.497985 +0530
150,v,21,1,5,v,1,0.4647731,None,5,1,21,1,,,,,57.0542365,,57.0384599,57.0542365,58.0375528,58.0375528,58.0375528,58.0375528,58.0543153,59.0373873,59.0373873,59.5048248,v,1,0.4647731,None,,,,,F2,1,2025-10-01_18h50.07.105,Motor sequence,,2025.1.1,59.85525807,2025-10-01 18h51.03.497985 +0530
50,c,22,2,5,c,1,0.4716005,None,5,2,22,2,,,,,59.5208015,,59.5052763,59.5208015,60.5207621,60.5207621,60.5207621,60.5207621,60.5207621,61.5042383,61.5042383,61.987753,c,1,0.4716005,None,,,,,F2,1,2025-10-01_18h50.07.105,Motor sequence,,2025.1.1,59.85525807,2025-10-01 18h51.03.497985 +0530
-150,z,23,3,5,z,1,0.6960948,None,5,3,23,3,,,,,62.0040607,,61.9882026,62.0040607,62.9872309,62.9872309,62.9872309,62.9872309,63.0040209,63.9872104,63.9872104,64.6876208,z,1,0.6960948,None,,,,,F2,1,2025-10-01_18h50.07.105,Motor sequence,,2025.1.1,59.85525807,2025-10-01 18h51.03.497985 +0530
-50,x,24,0,6,x,1,0.7034896,None,6,0,24,0,,,,,64.7037082,,64.6880678,64.7037082,65.686966,65.686966,65.686966,65.686966,65.7037981,66.6869895,66.6869895,67.4044704,x,1,0.7034896,None,,,,,F2,1,2025-10-01_18h50.07.105,Motor sequence,,2025.1.1,59.85525807,2025-10-01 18h51.03.497985 +0530
150,v,25,1,6,v,1,0.5544859,None,6,1,25,1,,,,,67.420342,,67.4049113,67.420342,68.4200056,68.4200056,68.4200056,68.4200056,68.4200056,69.4036815,69.4036815,69.9708404,v,1,0.5544859,None,,,,,F2,1,2025-10-01_18h50.07.105,Motor sequence,,2025.1.1,59.85525807,2025-10-01 18h51.03.497985 +0530
50,c,26,2,6,c,1,1.1508448,None,6,2,26,2,,,,,69.986883,,69.9712792,69.986883,70.9703502,70.9703502,70.9703502,70.9703502,70.9870419,71.9703645,71.9703645,73.1369949,c,1,1.1508448,None,,,,,F2,1,2025-10-01_18h50.07.105,Motor sequence,,2025.1.1,59.85525807,2025-10-01 18h51.03.497985 +0530
-150,z,27,3,6,z,1,0.7480402,None,6,3,27,3,,,,,73.1533167,,73.1374612,73.1533167,74.1367161,74.1367161,74.1367161,74.1367161,74.153029,75.1362721,75.1362721,75.8870326,z,1,0.7480402,None,,,,,F2,1,2025-10-01_18h50.07.105,Motor sequence,,2025.1.1,59.85525807,2025-10-01 18h51.03.497985 +0530
-50,x,28,0,7,x,1,0.4804109,None,7,0,28,0,,,,,75.9032038,,75.8874967,75.9032038,76.8862674,76.8862674,76.8862674,76.8862674,76.9031307,77.8863376,77.8863376,78.3705127,x,1,0.4804109,None,,,,,F2,1,2025-10-01_18h50.07.105,Motor sequence,,2025.1.1,59.85525807,2025-10-01 18h51.03.497985 +0530
150,v,29,1,7,v,1,0.6135801,None,7,1,29,1,,,,,78.386061,,78.370959,78.386061,79.3698146,79.3698146,79.3698146,79.3698146,79.3863694,80.3861722,80.3861722,81.0037285,v,1,0.6135801,None,,,,,F2,1,2025-10-01_18h50.07.105,Motor sequence,,2025.1.1,59.85525807,2025-10-01 18h51.03.497985 +0530
50,c,30,2,7,c,1,0.7695052,None,7,2,30,2,,,,,81.019717,,81.0041656,81.019717,82.0195123,82.0195123,82.0195123,82.0195123,82.0195123,83.0027515,83.0027515,83.7866496,c,1,0.7695052,None,,,,,F2,1,2025-10-01_18h50.07.105,Motor sequence,,2025.1.1,59.85525807,2025-10-01 18h51.03.497985 +0530
-150,z,31,3,7,z,1,0.7891593,None,7,3,31,3,,,,,83.8026857,,83.7871067,83.8026857,84.7855503,84.7855503,84.7855503,84.7855503,84.80233,85.7860293,85.7860293,86.5863585,z,1,0.7891593,None,,,,,F2,1,2025-10-01_18h50.07.105,Motor sequence,,2025.1.1,59.85525807,2025-10-01 18h51.03.497985 +0530
-50,x,32,0,8,x,1,0.6521876,None,8,0,32,0,,,,,86.6022684,,86.586871,86.6022684,87.5858225,87.5858225,87.5858225,87.5858225,87.6024664,88.5855527,88.5855527,89.2530748,x,1,0.6521876,None,,,,,F2,1,2025-10-01_18h50.07.105,Motor sequence,,2025.1.1,59.85525807,2025-10-01 18h51.03.497985 +0530
150,v,33,1,8,v,1,0.5681489,None,8,1,33,1,,,,,89.2688694,,89.2535853,89.2688694,90.2690731,90.2690731,90.2690731,90.2690731,90.2690731,91.2522578,91.2522578,91.8360012,v,1,0.5681489,None,,,,,F2,1,2025-10-01_18h50.07.105,Motor sequence,,2025.1.1,59.85525807,2025-10-01 18h51.03.497985 +0530
50,c,34,2,8,c,1,1.0300671,None,8,2,34,2,,,,,91.8522314,,91.8364504,91.8522314,92.835563,92.835563,92.835563,92.835563,92.8522922,93.8353325,93.8353325,94.8693581,c,1,1.0300671,None,,,,,F2,1,2025-10-01_18h50.07.105,Motor sequence,,2025.1.1,59.85525807,2025-10-01 18h51.03.497985 +0530
-150,z,35,3,8,z,1,0.7014219,None,8,3,35,3,,,,,94.8853035,,94.8698156,94.8853035,95.8686547,95.8686547,95.8686547,95.8686547,95.8851312,96.8852771,96.8852771,97.6024764,z,1,0.7014219,None,,,,,F2,1,2025-10-01_18h50.07.105,Motor sequence,,2025.1.1,59.85525807,2025-10-01 18h51.03.497985 +0530
-50,x,36,0,9,x,1,0.8581028,None,9,0,36,0,,,,,97.6187004,,97.6029245,97.6187004,98.6018838,98.6018838,98.6018838,98.6018838,98.6183266,99.6019183,99.6019183,100.468897,x,1,0.8581028,None,,,,,F2,1,2025-10-01_18h50.07.105,Motor sequence,,2025.1.1,59.85525807,2025-10-01 18h51.03.497985 +0530
150,v,37,1,9,v,1,0.3240815,None,9,1,37,1,,,,,100.484849,,100.469718,100.484849,101.468276,101.468276,101.468276,101.468276,101.4849982,102.4682056,102.4682056,102.8024345,v,1,0.3240815,None,,,,,F2,1,2025-10-01_18h50.07.105,Motor sequence,,2025.1.1,59.85525807,2025-10-01 18h51.03.497985 +0530
50,c,38,2,9,c,1,0.8228443,None,9,2,38,2,,,,,102.8180342,,102.802897,102.8180342,103.8182608,103.8182608,103.8182608,103.8182608,103.8182608,104.8180935,104.8180935,105.6520827,c,1,0.8228443,None,,,,,F2,1,2025-10-01_18h50.07.105,Motor sequence,,2025.1.1,59.85525807,2025-10-01 18h51.03.497985 +0530
-150,z,39,3,9,z,1,0.838581,None,9,3,39,3,,,,,105.667916,,105.6525482,105.667916,106.6511945,106.6511945,106.6511945,106.6511945,106.6680615,107.6511528,107.6511528,108.5019515,z,1,0.838581,None,,,,,F2,1,2025-10-01_18h50.07.105,Motor sequence,,2025.1.1,59.85525807,2025-10-01 18h51.03.497985 +0530
-50,x,40,0,10,x,1,0.6546307,None,10,0,40,0,,,,,108.5176666,,108.5024039,108.5176666,109.5012656,109.5012656,109.5012656,109.5012656,109.5179087,110.5012074,110.5012074,111.1682829,x,1,0.6546307,None,,,,,F2,1,2025-10-01_18h50.07.105,Motor sequence,,2025.1.1,59.85525807,2025-10-01 18h51.03.497985 +0530
150,v,41,1,10,v,1,0.7271489,None,10,1,41,1,,,,,111.1842721,,111.1687518,111.1842721,112.1676206,112.1676206,112.1676206,112.1676206,112.1842708,113.167661,113.167661,113.9015468,v,1,0.7271489,None,,,,,F2,1,2025-10-01_18h50.07.105,Motor sequence,,2025.1.1,59.85525807,2025-10-01 18h51.03.497985 +0530
50,c,42,2,10,c,1,0.5536157,None,10,2,42,2,,,,,113.9172444,,113.902064,113.9172444,114.9175372,114.9175372,114.9175372,114.9175372,114.9175372,115.9176172,115.9176172,116.4846131,c,1,0.5536157,None,,,,,F2,1,2025-10-01_18h50.07.105,Motor sequence,,2025.1.1,59.85525807,2025-10-01 18h51.03.497985 +0530
-150,z,43,3,10,z,1,0.6002377,None,10,3,43,3,,,,,116.5009833,,116.4850656,116.5009833,117.4838231,117.4838231,117.4838231,117.4838231,117.5008461,118.4838279,118.4838279,119.101266,z,1,0.6002377,None,,,,,F2,1,2025-10-01_18h50.07.105,Motor sequence,,2025.1.1,59.85525807,2025-10-01 18h51.03.497985 +0530
-50,x,44,0,11,x,1,0.9112278,None,11,0,44,0,,,,,119.1173638,,119.1017203,119.1173638,120.1007904,120.1007904,120.1007904,120.1007904,120.1169915,121.1172175,121.1172175,122.0343481,x,1,0.9112278,None,,,,,F2,1,2025-10-01_18h50.07.105,Motor sequence,,2025.1.1,59.85525807,2025-10-01 18h51.03.497985 +0530
150,v,45,1,11,v,1,0.4309919,None,11,1,45,1,,,,,122.0504028,,122.0348022,122.0504028,123.0337357,123.0337357,123.0337357,123.0337357,123.0502672,124.0335145,124.0335145,124.4676295,v,1,0.4309919,None,,,,,F2,1,2025-10-01_18h50.07.105,Motor sequence,,2025.1.1,59.85525807,2025-10-01 18h51.03.497985 +0530
50,c,46,2,11,c,1,0.8054912,None,11,2,46,2,,,,,124.4833321,,124.4683877,124.4833321,125.4669359,125.4669359,125.4669359,125.4669359,125.4835708,126.4669484,126.4669484,127.284081,c,1,0.8054912,None,,,,,F2,1,2025-10-01_18h50.07.105,Motor sequence,,2025.1.1,59.85525807,2025-10-01 18h51.03.497985 +0530
-150,z,47,3,11,z,1,0.6772534,None,11,3,47,3,,,,,127.2999124,,127.2845386,127.2999124,128.3001905,128.3001905,128.3001905,128.3001905,128.3001905,129.2832142,129.2832142,129.9672782,z,1,0.6772534,None,,,,,F2,1,2025-10-01_18h50.07.105,Motor sequence,,2025.1.1,59.85525807,2025-10-01 18h51.03.497985 +0530
-50,x,48,0,12,x,1,0.4362662,None,12,0,48,0,,,,,129.9829973,,129.967747,129.9829973,130.9666297,130.9666297,130.9666297,130.9666297,130.9832154,131.9664425,131.9664425,132.4171723,x,1,0.4362662,None,,,,,F2,1,2025-10-01_18h50.07.105,Motor sequence,,2025.1.1,59.85525807,2025-10-01 18h51.03.497985 +0530
150,v,49,1,12,v,1,0.3985606,None,12,1,49,1,,,,,132.4327686,,132.4176495,132.4327686,133.4163875,133.4163875,133.4163875,133.4163875,133.4328463,134.4163385,134.4163385,134.8170345,v,1,0.3985606,None,,,,,F2,1,2025-10-01_18h50.07.105,Motor sequence,,2025.1.1,59.85525807,2025-10-01 18h51.03.497985 +0530
50,c,50,2,12,c,1,0.7071482,None,12,2,50,2,,,,,134.8326206,,134.8175002,134.8326206,135.8162846,135.8162846,135.8162846,135.8162846,135.8328725,136.8162616,136.8162616,137.5334362,c,1,0.7071482,None,,,,,F2,1,2025-10-01_18h50.07.105,Motor sequence,,2025.1.1,59.85525807,2025-10-01 18h51.03.497985 +0530
-50,x,52,0,13,x,1,0.8916249,None,13,0,52,0,,,,,140.3492272,,140.3336014,140.3492272,141.3326456,141.3326456,141.3326456,141.3326456,141.3491848,142.3323591,142.3323591,143.2330328,x,1,0.8916249,None,,,,,F2,1,2025-10-01_18h50.07.105,Motor sequence,,2025.1.1,59.85525807,2025-10-01 18h51.03.497985 +0530
150,v,53,1,13,v,1,0.6756928,None,13,1,53,1,,,,,143.2492204,,143.2334893,143.2492204,144.2320213,144.2320213,144.2320213,144.2320213,144.2490028,145.2321457,145.2321457,145.9165092,v,1,0.6756928,None,,,,,F2,1,2025-10-01_18h50.07.105,Motor sequence,,2025.1.1,59.85525807,2025-10-01 18h51.03.497985 +0530
50,c,54,2,13,c,1,0.4135836,None,13,2,54,2,,,,,145.9321231,,145.9172162,145.9321231,146.9156101,146.9156101,146.9156101,146.9156101,146.9320304,147.9320974,147.9320974,148.3496815,c,1,0.4135836,None,,,,,F2,1,2025-10-01_18h50.07.105,Motor sequence,,2025.1.1,59.85525807,2025-10-01 18h51.03.497985 +0530
-150,z,55,3,13,z,1,0.3320256,None,13,3,55,3,,,,,148.3653633,,148.3501265,148.3653633,149.3654044,149.3654044,149.3654044,149.3654044,149.3654044,150.3654641,150.3654641,150.6993215,z,1,0.3320256,None,,,,,F2,1,2025-10-01_18h50.07.105,Motor sequence,,2025.1.1,59.85525807,2025-10-01 18h51.03.497985 +0530
-50,x,56,0,14,x,1,0.3509119,None,14,0,56,0,,,,,150.7151135,,150.6997724,150.7151135,151.6987044,151.6987044,151.6987044,151.6987044,151.7153497,152.6984774,152.6984774,153.0657165,x,1,0.3509119,None,,,,,F2,1,2025-10-01_18h50.07.105,Motor sequence,,2025.1.1,59.85525807,2025-10-01 18h51.03.497985 +0530
150,v,57,1,14,v,1,0.3718836,None,14,1,57,1,,,,,153.0815743,,153.0661768,153.0815743,154.0652451,154.0652451,154.0652451,154.0652451,154.0818386,155.0651551,155.0651551,155.4489401,v,1,0.3718836,None,,,,,F2,1,2025-10-01_18h50.07.105,Motor sequence,,2025.1.1,59.85525807,2025-10-01 18h51.03.497985 +0530
50,c,58,2,14,c,1,0.2726292,None,14,2,58,2,,,,,155.465035,,155.4494696,155.465035,156.4482192,156.4482192,156.4482192,156.4482192,156.4646439,157.4483317,157.4483317,157.7321145,c,1,0.2726292,None,,,,,F2,1,2025-10-01_18h50.07.105,Motor sequence,,2025.1.1,59.85525807,2025-10-01 18h51.03.497985 +0530
-150,z,59,3,14,z,1,0.2905031,None,14,3,59,3,,,,,157.7479931,,157.7328637,157.7479931,158.7483564,158.7483564,158.7483564,158.7483564,158.7483564,159.7313625,159.7313625,160.0320492,z,1,0.2905031,None,,,,,F2,1,2025-10-01_18h50.07.105,Motor sequence,,2025.1.1,59.85525807,2025-10-01 18h51.03.497985 +0530
-50,x,60,0,15,x,1,0.2674246,None,15,0,60,0,,,,,160.0479934,,160.0325078,160.0479934,161.0313958,161.0313958,161.0313958,161.0313958,161.0480723,162.0313274,162.0313274,162.3153436,x,1,0.2674246,None,,,,,F2,1,2025-10-01_18h50.07.105,Motor sequence,,2025.1.1,59.85525807,2025-10-01 18h51.03.497985 +0530
150,v,61,1,15,v,1,0.3153191,None,15,1,61,1,,,,,162.3312439,,162.3158728,162.3312439,163.3307883,163.3307883,163.3307883,163.3307883,163.3307883,164.3308509,164.3308509,164.6484994,v,1,0.3153191,None,,,,,F2,1,2025-10-01_18h50.07.105,Motor sequence,,2025.1.1,59.85525807,2025-10-01 18h51.03.497985 +0530
50,c,62,2,15,c,1,0.3659654,None,15,2,62,2,,,,,164.6643678,,164.6491892,164.6643678,165.6644345,165.6644345,165.6644345,165.6644345,165.6644345,166.6476879,166.6476879,167.0150014,c,1,0.3659654,None,,,,,F2,1,2025-10-01_18h50.07.105,Motor sequence,,2025.1.1,59.85525807,2025-10-01 18h51.03.497985 +0530
-150,z,63,3,15,z,1,0.2668691,None,15,3,63,3,,,,,167.0307127,,167.0154651,167.0307127,168.0144599,168.0144599,168.0144599,168.0144599,168.030605,169.0140605,169.0140605,169.2981749,z,1,0.2668691,None,,,,,F2,1,2025-10-01_18h50.07.105,Motor sequence,,2025.1.1,59.85525807,2025-10-01 18h51.03.497985 +0530
-50,x,64,0,16,x,1,0.2857435,None,16,0,64,0,,,,,169.3140766,,169.2986157,169.3140766,170.2973158,170.2973158,170.2973158,170.2973158,170.3139285,171.2973943,171.2973943,171.5979477,x,1,0.2857435,None,,,,,F2,1,2025-10-01_18h50.07.105,Motor sequence,,2025.1.1,59.85525807,2025-10-01 18h51.03.497985 +0530
150,v,65,1,16,v,1,0.2792445,None,16,1,65,1,,,,,171.6143456,,171.5985544,171.6143456,172.5974895,172.5974895,172.5974895,172.5974895,172.6143387,173.5975427,173.5975427,173.880918,v,1,0.2792445,None,,,,,F2,1,2025-10-01_18h50.07.105,Motor sequence,,2025.1.1,59.85525807,2025-10-01 18h51.03.497985 +0530
50,c,66,2,16,c,1,0.2326666,None,16,2,66,2,,,,,173.8972423,,173.8813658,173.8972423,174.8804936,174.8804936,174.8804936,174.8804936,174.8971106,175.8803434,175.8803434,176.1145873,c,1,0.2326666,None,,,,,F2,1,2025-10-01_18h50.07.105,Motor sequence,,2025.1.1,59.85525807,2025-10-01 18h51.03.497985 +0530
-150,z,67,3,16,z,1,0.2916395,None,16,3,67,3,,,,,176.1300618,,176.1150363,176.1300618,177.113629,177.113629,177.113629,177.113629,177.1304569,178.1138903,178.1138903,178.4143174,z,1,0.2916395,None,,,,,F2,1,2025-10-01_18h50.07.105,Motor sequence,,2025.1.1,59.85525807,2025-10-01 18h51.03.497985 +0530
-50,x,68,0,17,x,1,0.2836857,None,17,0,68,0,,,,,178.430056,,178.4148002,178.430056,179.430219,179.430219,179.430219,179.430219,179.430219,180.4296893,180.4296893,180.7303918,x,1,0.2836857,None,,,,,F2,1,2025-10-01_18h50.07.105,Motor sequence,,2025.1.1,59.85525807,2025-10-01 18h51.03.497985 +0530
150,v,69,1,17,v,1,0.3058603,None,17,1,69,1,,,,,180.7468181,,180.7306897,180.7468181,181.7297673,181.7297673,181.7297673,181.7297673,181.7466296,182.7299698,182.7299698,183.0474467,v,1,0.3058603,None,,,,,F2,1,2025-10-01_18h50.07.105,Motor sequence,,2025.1.1,59.85525807,2025-10-01 18h51.03.497985 +0530
50,c,70,2,17,c,1,0.2742925,None,17,2,70,2,,,,,183.0634966,,183.048076,183.0634966,184.0629899,184.0629899,184.0629899,184.0629899,184.0629899,185.063216,185.063216,185.347159,c,1,0.2742925,None,,,,,F2,1,2025-10-01_18h50.07.105,Motor sequence,,2025.1.1,59.85525807,2025-10-01 18h51.03.497985 +0530
-150,z,71,3,17,z,1,0.2931705,None,17,3,71,3,,,,,185.3631668,,185.347609,185.3631668,186.3466158,186.3466158,186.3466158,186.3466158,186.3630407,187.3464406,187.3464406,187.6470132,z,1,0.2931705,None,,,,,F2,1,2025-10-01_18h50.07.105,Motor sequence,,2025.1.1,59.85525807,2025-10-01 18h51.03.497985 +0530
150,v,73,1,18,v,1,0.4865614,None,18,1,73,1,,,,,189.9796049,,189.963954,189.9796049,190.9627166,190.9627166,190.9627166,190.9627166,190.9794276,191.9629318,191.9629318,192.4634763,v,1,0.4865614,None,,,,,F2,1,2025-10-01_18h50.07.105,Motor sequence,,2025.1.1,59.85525807,2025-10-01 18h51.03.497985 +0530
50,c,74,2,18,c,1,0.2507929,None,18,2,74,2,,,,,192.4792042,,192.4639239,192.4792042,193.4628466,193.4628466,193.4628466,193.4628466,193.479133,194.4627912,194.4627912,194.7298035,c,1,0.2507929,None,,,,,F2,1,2025-10-01_18h50.07.105,Motor sequence,,2025.1.1,59.85525807,2025-10-01 18h51.03.497985 +0530
-150,z,75,3,18,z,1,0.280293,None,18,3,75,3,,,,,194.7460702,,194.7302494,194.7460702,195.7292912,195.7292912,195.7292912,195.7292912,195.745837,196.7290994,196.7290994,197.0132765,z,1,0.280293,None,,,,,F2,1,2025-10-01_18h50.07.105,Motor sequence,,2025.1.1,59.85525807,2025-10-01 18h51.03.497985 +0530
-50,x,76,0,19,x,1,0.3275101,None,19,0,76,0,,,,,197.0289191,,197.0138293,197.0289191,198.0126135,198.0126135,198.0126135,198.0126135,198.0292121,199.0288957,199.0288957,199.3629315,x,1,0.3275101,None,,,,,F2,1,2025-10-01_18h50.07.105,Motor sequence,,2025.1.1,59.85525807,2025-10-01 18h51.03.497985 +0530
150,v,77,1,19,v,1,0.242607,None,19,1,77,1,,,,,199.3788679,,199.3633799,199.3788679,200.3624557,200.3624557,200.3624557,200.3624557,200.3792154,201.3622913,201.3622913,201.6129193,v,1,0.242607,None,,,,,F2,1,2025-10-01_18h50.07.105,Motor sequence,,2025.1.1,59.85525807,2025-10-01 18h51.03.497985 +0530
50,c,78,2,19,c,1,0.1761755,None,19,2,78,2,,,,,201.628985,,201.6133645,201.628985,202.6120989,202.6120989,202.6120989,202.6120989,202.6288972,203.6120821,203.6120821,203.79627,c,1,0.1761755,None,,,,,F2,1,2025-10-01_18h50.07.105,Motor sequence,,2025.1.1,59.85525807,2025-10-01 18h51.03.497985 +0530
-150,z,79,3,19,z,1,0.2809936,None,19,3,79,3,,,,,203.8119278,,203.7969208,203.8119278,204.7951702,204.7951702,204.7951702,204.7951702,204.8118444,205.811836,205.811836,206.0957089,z,1,0.2809936,None,,,,,F2,1,2025-10-01_18h50.07.105,Motor sequence,,2025.1.1,59.85525807,2025-10-01 18h51.03.497985 +0530
-50,x,80,0,20,x,1,0.2198456,None,20,0,80,0,,,,,206.1118809,,206.0961582,206.1118809,207.0951883,207.0951883,207.0951883,207.0951883,207.1121276,208.0952864,208.0952864,208.3290338,x,1,0.2198456,None,,,,,F2,1,2025-10-01_18h50.07.105,Motor sequence,,2025.1.1,59.85525807,2025-10-01 18h51.03.497985 +0530
150,v,81,1,20,v,1,0.2254194,None,20,1,81,1,,,,,208.3450964,,208.3297261,208.3450964,209.3281174,209.3281174,209.3281174,209.3281174,209.3448773,210.3281692,210.3281692,210.5624339,v,1,0.2254194,None,,,,,F2,1,2025-10-01_18h50.07.105,Motor sequence,,2025.1.1,59.85525807,2025-10-01 18h51.03.497985 +0530
50,c,82,2,20,c,1,0.4885668,None,20,2,82,2,,,,,210.5780827,,210.562882,210.5780827,211.5617819,211.5617819,211.5617819,211.5617819,211.5783506,212.5616563,212.5616563,213.0622953,c,1,0.4885668,None,,,,,F2,1,2025-10-01_18h50.07.105,Motor sequence,,2025.1.1,59.85525807,2025-10-01 18h51.03.497985 +0530
-150,z,83,3,20,z,1,0.0853841,None,20,3,83,3,,,,,213.0780463,,213.0628019,213.0780463,214.0615839,214.0615839,214.0615839,214.0615839,214.078058,215.0615135,215.0615135,215.1619528,z,1,0.0853841,None,,,,,F2,1,2025-10-01_18h50.07.105,Motor sequence,,2025.1.1,59.85525807,2025-10-01 18h51.03.497985 +0530
-50,x,84,0,21,x,1,0.2133041,None,21,0,84,0,,,,,215.1777529,,215.1625554,215.1777529,216.1614493,216.1614493,216.1614493,216.1614493,216.177917,217.161439,217.161439,217.37874,x,1,0.2133041,None,,,,,F2,1,2025-10-01_18h50.07.105,Motor sequence,,2025.1.1,59.85525807,2025-10-01 18h51.03.497985 +0530
150,v,85,1,21,v,1,0.2184675,None,21,1,85,1,,,,,217.3946675,,217.3794716,217.3946675,218.378026,218.378026,218.378026,218.378026,218.3946915,219.3777729,219.3777729,219.6115109,v,1,0.2184675,None,,,,,F2,1,2025-10-01_18h50.07.105,Motor sequence,,2025.1.1,59.85525807,2025-10-01 18h51.03.497985 +0530
50,c,86,2,21,c,1,0.2132451,None,21,2,86,2,,,,,219.6275519,,219.612053,219.6275519,220.6112154,220.6112154,220.6112154,220.6112154,220.6277653,221.6111307,221.6111307,221.828177,c,1,0.2132451,None,,,,,F2,1,2025-10-01_18h50.07.105,Motor sequence,,2025.1.1,59.85525807,2025-10-01 18h51.03.497985 +0530
-150,z,87,3,21,z,1,0.2487025,None,21,3,87,3,,,,,221.8441621,,221.8286321,221.8441621,222.8274878,222.8274878,222.8274878,222.8274878,222.8443821,223.8271597,223.8271597,224.0781088,z,1,0.2487025,None,,,,,F2,1,2025-10-01_18h50.07.105,Motor sequence,,2025.1.1,59.85525807,2025-10-01 18h51.03.497985 +0530
-50,x,88,0,22,x,1,0.1809271,None,22,0,88,0,,,,,224.0942607,,224.0785643,224.0942607,225.077478,225.077478,225.077478,225.077478,225.0941695,226.0772465,226.0772465,226.2615511,x,1,0.1809271,None,,,,,F2,1,2025-10-01_18h50.07.105,Motor sequence,,2025.1.1,59.85525807,2025-10-01 18h51.03.497985 +0530
150,v,89,1,22,v,1,0.3800084,None,22,1,89,1,,,,,226.2771932,,226.2620516,226.2771932,227.2607992,227.2607992,227.2607992,227.2607992,227.2772089,228.2772216,228.2772216,228.6611501,v,1,0.3800084,None,,,,,F2,1,2025-10-01_18h50.07.105,Motor sequence,,2025.1.1,59.85525807,2025-10-01 18h51.03.497985 +0530
50,c,90,2,22,c,1,0.2573977,None,22,2,90,2,,,,,228.6771014,,228.6617053,228.6771014,229.6604733,229.6604733,229.6604733,229.6604733,229.6771012,230.6604617,230.6604617,230.9274399,c,1,0.2573977,None,,,,,F2,1,2025-10-01_18h50.07.105,Motor sequence,,2025.1.1,59.85525807,2025-10-01 18h51.03.497985 +0530
-150,z,91,3,22,z,1,0.2984245,None,22,3,91,3,,,,,230.9436191,,230.9279101,230.9436191,231.9270688,231.9270688,231.9270688,231.9270688,231.9437985,232.9267422,232.9267422,233.2274992,z,1,0.2984245,None,,,,,F2,1,2025-10-01_18h50.07.105,Motor sequence,,2025.1.1,59.85525807,2025-10-01 18h51.03.497985 +0530
-50,x,92,0,23,x,1,0.2964357,None,23,0,92,0,,,,,233.2434804,,233.2280199,233.2434804,234.226923,234.226923,234.226923,234.226923,234.2438121,235.2268669,235.2268669,235.5274574,x,1,0.2964357,None,,,,,F2,1,2025-10-01_18h50.07.105,Motor sequence,,2025.1.1,59.85525807,2025-10-01 18h51.03.497985 +0530
150,v,93,1,23,v,1,0.2690105,None,23,1,93,1,,,,,235.5436033,,235.5279581,235.5436033,236.5264982,236.5264982,236.5264982,236.5264982,236.5433299,237.5266511,237.5266511,237.8107582,v,1,0.2690105,None,,,,,F2,1,2025-10-01_18h50.07.105,Motor sequence,,2025.1.1,59.85525807,2025-10-01 18h51.03.497985 +0530
50,c,94,2,23,c,1,0.0134801,None,23,2,94,2,,,,,237.8268223,,237.8112205,237.8268223,238.809825,238.809825,238.809825,238.809825,238.8263969,239.8099743,239.8099743,239.827391,c,1,0.0134801,None,,,,,F2,1,2025-10-01_18h50.07.105,Motor sequence,,2025.1.1,59.85525807,2025-10-01 18h51.03.497985 +0530
-150,z,95,3,23,z,1,0.2429284,None,23,3,95,3,,,,,239.8430921,,239.8278342,239.8430921,240.8432,240.8432,240.8432,240.8432,240.8432,241.8262894,241.8262894,242.0772694,z,1,0.2429284,None,,,,,F2,1,2025-10-01_18h50.07.105,Motor sequence,,2025.1.1,59.85525807,2025-10-01 18h51.03.497985 +0530
-50,x,96,0,24,x,1,0.296181,None,24,0,96,0,,,,,242.0929634,,242.077716,242.0929634,243.0762572,243.0762572,243.0762572,243.0762572,243.0931772,244.07623,244.07623,244.3770969,x,1,0.296181,None,,,,,F2,1,2025-10-01_18h50.07.105,Motor sequence,,2025.1.1,59.85525807,2025-10-01 18h51.03.497985 +0530
150,v,97,1,24,v,1,0.255865,None,24,1,97,1,,,,,244.3928932,,244.3776112,244.3928932,245.3925203,245.3925203,245.3925203,245.3925203,245.3925203,246.3927357,246.3927357,246.6598171,v,1,0.255865,None,,,,,F2,1,2025-10-01_18h50.07.105,Motor sequence,,2025.1.1,59.85525807,2025-10-01 18h51.03.497985 +0530
50,c,98,2,24,c,1,0.1725296,None,24,2,98,2,,,,,246.6756742,,246.6601543,246.6756742,247.6592593,247.6592593,247.6592593,247.6592593,247.6757821,248.6593549,248.6593549,248.8427885,c,1,0.1725296,None,,,,,F2,1,2025-10-01_18h50.07.105,Motor sequence,,2025.1.1,59.85525807,2025-10-01 18h51.03.497985 +0530
-150,z,99,3,24,z,1,0.2906558,None,24,3,99,3,,,,,248.8590245,,248.8430566,248.8590245,249.842657,249.842657,249.842657,249.842657,249.8593016,250.8426044,250.8426044,251.1426743,z,1,0.2906558,None,,,,,F2,1,2025-10-01_18h50.07.105,Motor sequence,,2025.1.1,59.85525807,2025-10-01 18h51.03.497985 +0530
-50,x,1,1,0,x,1,0.7198023,None,,,,,0,1,1,0,253.7089954,,253.6936123,253.7089954,254.6923535,254.6923535,254.6923535,254.6923535,254.709092,255.7091552,255.7091552,256.4428212,,,,,x,1,0.7198023,None,F2,1,2025-10-01_18h50.07.105,Motor sequence,,2025.1.1,59.85525807,2025-10-01 18h51.03.497985 +0530
150,v,2,2,0,v,1,0.2722644,None,,,,,0,2,2,1,256.4588633,,256.4432801,256.4588633,257.4421457,257.4421457,257.4421457,257.4421457,257.4591358,258.4588912,258.4588912,258.7427559,,,,,v,1,0.2722644,None,F2,1,2025-10-01_18h50.07.105,Motor sequence,,2025.1.1,59.85525807,2025-10-01 18h51.03.497985 +0530
-50,x,3,3,1,x,1,0.9354739,None,,,,,1,3,3,0,258.7586016,,258.7432108,258.7586016,259.7420008,259.7420008,259.7420008,259.7420008,259.7586798,260.7586883,260.7586883,261.7096251,,,,,x,1,0.9354739,None,F2,1,2025-10-01_18h50.07.105,Motor sequence,,2025.1.1,59.85525807,2025-10-01 18h51.03.497985 +0530
150,v,4,4,1,v,1,0.4566601,None,,,,,1,4,4,1,261.725164,,261.7100937,261.725164,262.7082306,262.7082306,262.7082306,262.7082306,262.725126,263.7251588,263.7251588,264.1928639,,,,,v,1,0.4566601,None,F2,1,2025-10-01_18h50.07.105,Motor sequence,,2025.1.1,59.85525807,2025-10-01 18h51.03.497985 +0530
-50,x,5,5,2,x,1,0.6269753,None,,,,,2,5,5,0,264.2081365,,264.1935718,264.2081365,265.2085252,265.2085252,265.2085252,265.2085252,265.2085252,266.2082204,266.2082204,266.8424091,,,,,x,1,0.6269753,None,F2,1,2025-10-01_18h50.07.105,Motor sequence,,2025.1.1,59.85525807,2025-10-01 18h51.03.497985 +0530
-50,x,6,6,3,x,1,0.7739931,None,,,,,3,6,6,0,266.8583032,,266.8429063,266.8583032,267.8581904,267.8581904,267.8581904,267.8581904,267.8581904,268.8581785,268.8581785,269.6421426,,,,,x,1,0.7739931,None,F2,1,2025-10-01_18h50.07.105,Motor sequence,,2025.1.1,59.85525807,2025-10-01 18h51.03.497985 +0530
150,v,7,7,2,v,1,0.6448754,None,,,,,2,7,7,1,269.6580951,,269.642598,269.6580951,270.6415092,270.6415092,270.6415092,270.6415092,270.6581175,271.6415966,271.6415966,272.2918185,,,,,v,1,0.6448754,None,F2,1,2025-10-01_18h50.07.105,Motor sequence,,2025.1.1,59.85525807,2025-10-01 18h51.03.497985 +0530
50,c,8,8,0,c,1,0.8933008,None,,,,,0,8,8,2,272.3078996,,272.292263,272.3078996,273.2911006,273.2911006,273.2911006,273.2911006,273.3077879,274.2910653,274.2910653,275.1917589,,,,,c,1,0.8933008,None,F2,1,2025-10-01_18h50.07.105,Motor sequence,,2025.1.1,59.85525807,2025-10-01 18h51.03.497985 +0530
50,c,9,9,1,c,1,0.7954859,None,,,,,1,9,9,2,275.2079285,,275.1922153,275.2079285,276.1910777,276.1910777,276.1910777,276.1910777,276.207845,277.1909313,277.1909313,277.9913426,,,,,c,1,0.7954859,None,F2,1,2025-10-01_18h50.07.105,Motor sequence,,2025.1.1,59.85525807,2025-10-01 18h51.03.497985 +0530
-150,z,10,10,1,z,1,0.6796294,None,,,,,1,10,10,3,278.0074471,,277.9917962,278.0074471,278.9908349,278.9908349,278.9908349,278.9908349,279.0075068,279.9909149,279.9909149,280.6745489,,,,,z,1,0.6796294,None,F2,1,2025-10-01_18h50.07.105,Motor sequence,,2025.1.1,59.85525807,2025-10-01 18h51.03.497985 +0530
50,c,11,11,2,c,1,0.7421995,None,,,,,2,11,11,2,280.6906679,,280.6750851,280.6906679,281.6739729,281.6739729,281.6739729,281.6739729,281.690697,282.6738908,282.6738908,283.4244795,,,,,c,1,0.7421995,None,F2,1,2025-10-01_18h50.07.105,Motor sequence,,2025.1.1,59.85525807,2025-10-01 18h51.03.497985 +0530
150,v,12,12,3,v,1,0.6055692,None,,,,,3,12,12,1,283.4404513,,283.4250676,283.4404513,284.4239083,284.4239083,284.4239083,284.4239083,284.4405412,285.4235155,285.4235155,286.041369,,,,,v,1,0.6055692,None,F2,1,2025-10-01_18h50.07.105,Motor sequence,,2025.1.1,59.85525807,2025-10-01 18h51.03.497985 +0530
150,v,13,13,4,v,1,0.4689336,None,,,,,4,13,13,1,286.0571374,,286.041838,286.0571374,287.0571539,287.0571539,287.0571539,287.0571539,287.0571539,288.0570198,288.0570198,288.5410654,,,,,v,1,0.4689336,None,F2,1,2025-10-01_18h50.07.105,Motor sequence,,2025.1.1,59.85525807,2025-10-01 18h51.03.497985 +0530
-150,z,14,14,2,z,1,0.6134085,None,,,,,2,14,14,3,288.5567857,,288.5415453,288.5567857,289.5403766,289.5403766,289.5403766,289.5403766,289.5569452,290.5402436,290.5402436,291.1572584,,,,,z,1,0.6134085,None,F2,1,2025-10-01_18h50.07.105,Motor sequence,,2025.1.1,59.85525807,2025-10-01 18h51.03.497985 +0530
50,c,15,15,3,c,1,0.6855946,None,,,,,3,15,15,2,291.173341,,291.1577193,291.173341,292.1576699,292.1576699,292.1576699,292.1576699,292.1730955,293.1567299,293.1567299,293.8572752,,,,,c,1,0.6855946,None,F2,1,2025-10-01_18h50.07.105,Motor sequence,,2025.1.1,59.85525807,2025-10-01 18h51.03.497985 +0530
150,v,16,16,5,v,1,0.5226542,None,,,,,5,16,16,1,293.873219,,293.857735,293.873219,294.8566488,294.8566488,294.8566488,294.8566488,294.8732945,295.8563331,295.8563331,296.390273,,,,,v,1,0.5226542,None,F2,1,2025-10-01_18h50.07.105,Motor sequence,,2025.1.1,59.85525807,2025-10-01 18h51.03.497985 +0530
-50,x,17,17,4,x,1,0.3671483,None,,,,,4,17,17,0,296.4063905,,296.390834,296.4063905,297.3897213,297.3897213,297.3897213,297.3897213,297.4064739,298.3895582,298.3895582,298.7755648,,,,,x,1,0.3671483,None,F2,1,2025-10-01_18h50.07.105,Motor sequence,,2025.1.1,59.85525807,2025-10-01 18h51.03.497985 +0530
150,v,18,18,6,v,1,0.4946209,None,,,,,6,18,18,1,298.789578,,298.77606,298.789578,299.7894837,299.7894837,299.7894837,299.7894837,299.7894837,300.7894146,300.7894146,301.2898769,,,,,v,1,0.4946209,None,F2,1,2025-10-01_18h50.07.105,Motor sequence,,2025.1.1,59.85525807,2025-10-01 18h51.03.497985 +0530
-150,z,19,19,3,z,1,0.7277882,None,,,,,3,19,19,3,301.3059294,,301.290299,301.3059294,302.2891685,302.2891685,302.2891685,302.2891685,302.3058711,303.2890976,303.2890976,304.0230858,,,,,z,1,0.7277882,None,F2,1,2025-10-01_18h50.07.105,Motor sequence,,2025.1.1,59.85525807,2025-10-01 18h51.03.497985 +0530
-50,x,20,20,5,x,1,0.506991,None,,,,,5,20,20,0,304.03913,,304.0234551,304.03913,305.0221797,305.0221797,305.0221797,305.0221797,305.0390872,306.022245,306.022245,306.5392036,,,,,x,1,0.506991,None,F2,1,2025-10-01_18h50.07.105,Motor sequence,,2025.1.1,59.85525807,2025-10-01 18h51.03.497985 +0530
-50,x,21,21,6,x,1,0.4930384,None,,,,,6,21,21,0,306.5555431,,306.5394684,306.5555431,307.5388736,307.5388736,307.5388736,307.5388736,307.5555391,308.5387728,308.5387728,309.0391824,,,,,x,1,0.4930384,None,F2,1,2025-10-01_18h50.07.105,Motor sequence,,2025.1.1,59.85525807,2025-10-01 18h51.03.497985 +0530
-150,z,22,22,4,z,1,0.5556599,None,,,,,4,22,22,3,309.0554347,,309.039496,309.0554347,310.0386302,310.0386302,310.0386302,310.0386302,310.0554118,311.0387018,311.0387018,311.6058676,,,,,z,1,0.5556599,None,F2,1,2025-10-01_18h50.07.105,Motor sequence,,2025.1.1,59.85525807,2025-10-01 18h51.03.497985 +0530
50,c,24,24,5,c,1,0.7801249,None,,,,,5,24,24,2,314.4052218,,314.3894478,314.4052218,315.3884717,315.3884717,315.3884717,315.3884717,315.4050233,316.4048225,316.4048225,317.1885702,,,,,c,1,0.7801249,None,F2,1,2025-10-01_18h50.07.105,Motor sequence,,2025.1.1,59.85525807,2025-10-01 18h51.03.497985 +0530
150,v,25,25,7,v,1,0.4697573,None,,,,,7,25,25,1,317.2047625,,317.1890094,317.2047625,318.1880519,318.1880519,318.1880519,318.1880519,318.2047898,319.1880152,319.1880152,319.6719601,,,,,v,1,0.4697573,None,F2,1,2025-10-01_18h50.07.105,Motor sequence,,2025.1.1,59.85525807,2025-10-01 18h51.03.497985 +0530
50,c,26,26,6,c,1,0.5686375,None,,,,,6,26,26,2,319.6880215,,319.6723882,319.6880215,320.6712449,320.6712449,320.6712449,320.6712449,320.6879728,321.6711284,321.6711284,322.2550683,,,,,c,1,0.5686375,None,F2,1,2025-10-01_18h50.07.105,Motor sequence,,2025.1.1,59.85525807,2025-10-01 18h51.03.497985 +0530
-150,z,27,27,5,z,1,0.638972,None,,,,,5,27,27,3,322.2710703,,322.255442,322.2710703,323.254486,323.254486,323.254486,323.254486,323.271038,324.254351,324.254351,324.9049312,,,,,z,1,0.638972,None,F2,1,2025-10-01_18h50.07.105,Motor sequence,,2025.1.1,59.85525807,2025-10-01 18h51.03.497985 +0530
-150,z,28,28,6,z,1,0.530465,None,,,,,6,28,28,3,324.9208596,,324.9053765,324.9208596,325.9044643,325.9044643,325.9044643,325.9044643,325.9210312,326.9046732,326.9046732,327.4386737,,,,,z,1,0.530465,None,F2,1,2025-10-01_18h50.07.105,Motor sequence,,2025.1.1,59.85525807,2025-10-01 18h51.03.497985 +0530
-150,z,29,29,7,z,1,0.5052324,None,,,,,7,29,29,3,327.4544047,,327.4397077,327.4544047,328.43796,328.43796,328.43796,328.43796,328.45455,329.4544004,329.4544004,329.9717354,,,,,z,1,0.5052324,None,F2,1,2025-10-01_18h50.07.105,Motor sequence,,2025.1.1,59.85525807,2025-10-01 18h51.03.497985 +0530
-150,z,30,30,8,z,1,0.4745279,None,,,,,8,30,30,3,329.9879001,,329.9721929,329.9879001,330.9711127,330.9711127,330.9711127,330.9711127,330.9879159,331.9709062,331.9709062,332.4548366,,,,,z,1,0.4745279,None,F2,1,2025-10-01_18h50.07.105,Motor sequence,,2025.1.1,59.85525807,2025-10-01 18h51.03.497985 +0530
-150,z,31,31,9,z,1,0.6132778,None,,,,,9,31,31,3,332.4706318,,332.4554028,332.4706318,333.4543576,333.4543576,333.4543576,333.4543576,333.4708497,334.4543908,334.4543908,335.0716415,,,,,z,1,0.6132778,None,F2,1,2025-10-01_18h50.07.105,Motor sequence,,2025.1.1,59.85525807,2025-10-01 18h51.03.497985 +0530
-150,z,32,32,10,z,1,0.6799826,None,,,,,10,32,32,3,335.0876621,,335.0720932,335.0876621,336.070724,336.070724,336.070724,336.070724,336.0873084,337.0708064,337.0708064,337.7546987,,,,,z,1,0.6799826,None,F2,1,2025-10-01_18h50.07.105,Motor sequence,,2025.1.1,59.85525807,2025-10-01 18h51.03.497985 +0530
-150,z,33,33,11,z,1,0.4739398,None,,,,,11,33,33,3,337.7705879,,337.7551667,337.7705879,338.7703803,338.7703803,338.7703803,338.7703803,338.7703803,339.7540467,339.7540467,340.2376332,,,,,z,1,0.4739398,None,F2,1,2025-10-01_18h50.07.105,Motor sequence,,2025.1.1,59.85525807,2025-10-01 18h51.03.497985 +0530
-150,z,34,34,12,z,1,0.424558,None,,,,,12,34,34,3,340.2536904,,340.2381033,340.2536904,341.2371705,341.2371705,341.2371705,341.2371705,341.2537354,342.2370349,342.2370349,342.6709417,,,,,z,1,0.424558,None,F2,1,2025-10-01_18h50.07.105,Motor sequence,,2025.1.1,59.85525807,2025-10-01 18h51.03.497985 +0530
150,v,35,35,8,v,1,0.5324756,None,,,,,8,35,35,1,342.6869021,,342.6715499,342.6869021,343.6701914,343.6701914,343.6701914,343.6701914,343.6870893,344.670286,344.670286,345.2042259,,,,,v,1,0.5324756,None,F2,1,2025-10-01_18h50.07.105,Motor sequence,,2025.1.1,59.85525807,2025-10-01 18h51.03.497985 +0530
50,c,36,36,7,c,1,0.8170718,None,,,,,7,36,36,2,345.2199337,,345.2047037,345.2199337,346.2034215,346.2034215,346.2034215,346.2034215,346.2201921,347.2035075,347.2035075,348.0372947,,,,,c,1,0.8170718,None,F2,1,2025-10-01_18h50.07.105,Motor sequence,,2025.1.1,59.85525807,2025-10-01 18h51.03.497985 +0530
150,v,37,37,9,v,1,0.6288042,None,,,,,9,37,37,1,348.0531801,,348.0377688,348.0531801,349.0366758,349.0366758,349.0366758,349.0366758,349.0534509,350.0364612,350.0364612,350.6702086,,,,,v,1,0.6288042,None,F2,1,2025-10-01_18h50.07.105,Motor sequence,,2025.1.1,59.85525807,2025-10-01 18h51.03.497985 +0530
150,v,38,38,10,v,1,0.4311882,None,,,,,10,38,38,1,350.6863632,,350.6707965,350.6863632,351.6697321,351.6697321,351.6697321,351.6697321,351.686667,352.6696517,352.6696517,353.1035418,,,,,v,1,0.4311882,None,F2,1,2025-10-01_18h50.07.105,Motor sequence,,2025.1.1,59.85525807,2025-10-01 18h51.03.497985 +0530
-50,x,39,39,7,x,1,0.6857202,None,,,,,7,39,39,0,353.1193499,,353.1039989,353.1193499,354.1030529,354.1030529,354.1030529,354.1030529,354.1195113,355.1030739,355.1030739,355.8033969,,,,,x,1,0.6857202,None,F2,1,2025-10-01_18h50.07.105,Motor sequence,,2025.1.1,59.85525807,2025-10-01 18h51.03.497985 +0530
-150,z,40,40,13,z,1,0.6296122,None,,,,,13,40,40,3,355.8194296,,355.803859,355.8194296,356.8028818,356.8028818,356.8028818,356.8028818,356.8194236,357.8028103,357.8028103,358.4364667,,,,,z,1,0.6296122,None,F2,1,2025-10-01_18h50.07.105,Motor sequence,,2025.1.1,59.85525807,2025-10-01 18h51.03.497985 +0530
-50,x,41,41,8,x,1,0.6050832,None,,,,,8,41,41,0,358.4524248,,358.4369362,358.4524248,359.4360249,359.4360249,359.4360249,359.4360249,359.4526343,360.4359837,360.4359837,361.0531629,,,,,x,1,0.6050832,None,F2,1,2025-10-01_18h50.07.105,Motor sequence,,2025.1.1,59.85525807,2025-10-01 18h51.03.497985 +0530
-50,x,42,42,9,x,1,0.5141872,None,,,,,9,42,42,0,361.0691742,,361.0536249,361.0691742,362.0524557,362.0524557,362.0524557,362.0524557,362.069187,363.0525304,363.0525304,363.5696709,,,,,x,1,0.5141872,None,F2,1,2025-10-01_18h50.07.105,Motor sequence,,2025.1.1,59.85525807,2025-10-01 18h51.03.497985 +0530
150,v,43,43,11,v,1,0.3280471,None,,,,,11,43,43,1,363.5855961,,363.5701911,363.5855961,364.568823,364.568823,364.568823,364.568823,364.5858215,365.569053,365.569053,365.9028195,,,,,v,1,0.3280471,None,F2,1,2025-10-01_18h50.07.105,Motor sequence,,2025.1.1,59.85525807,2025-10-01 18h51.03.497985 +0530
150,v,44,44,12,v,1,0.4614627,None,,,,,12,44,44,1,365.9185402,,365.9032886,365.9185402,366.9022606,366.9022606,366.9022606,366.9022606,366.9187667,367.9018822,367.9018822,368.3694745,,,,,v,1,0.4614627,None,F2,1,2025-10-01_18h50.07.105,Motor sequence,,2025.1.1,59.85525807,2025-10-01 18h51.03.497985 +0530
50,c,45,45,8,c,1,0.6611227,None,,,,,8,45,45,2,368.38542,,368.3699402,368.38542,369.3684709,369.3684709,369.3684709,369.3684709,369.3850655,370.3687736,370.3687736,371.0358319,,,,,c,1,0.6611227,None,F2,1,2025-10-01_18h50.07.105,Motor sequence,,2025.1.1,59.85525807,2025-10-01 18h51.03.497985 +0530
-150,z,46,46,14,z,1,0.5222523,None,,,,,14,46,46,3,371.0516545,,371.0362932,371.0516545,372.035408,372.035408,372.035408,372.035408,372.0520043,373.0352293,373.0352293,373.5690743,,,,,z,1,0.5222523,None,F2,1,2025-10-01_18h50.07.105,Motor sequence,,2025.1.1,59.85525807,2025-10-01 18h51.03.497985 +0530
150,v,48,48,13,v,1,0.557399,None,,,,,13,48,48,1,376.1682595,,376.1528069,376.1682595,377.1516419,377.1516419,377.1516419,377.1516419,377.1683666,378.1514504,378.1514504,378.7187432,,,,,v,1,0.557399,None,F2,1,2025-10-01_18h50.07.105,Motor sequence,,2025.1.1,59.85525807,2025-10-01 18h51.03.497985 +0530
150,v,49,49,14,v,1,0.6227175,None,,,,,14,49,49,1,378.7346501,,378.7192112,378.7346501,379.7180247,379.7180247,379.7180247,379.7180247,379.7346039,380.718092,380.718092,381.3519522,,,,,v,1,0.6227175,None,F2,1,2025-10-01_18h50.07.105,Motor sequence,,2025.1.1,59.85525807,2025-10-01 18h51.03.497985 +0530
-150,z,50,50,15,z,1,0.7823988,None,,,,,15,50,50,3,381.3679882,,381.3524879,381.3679882,382.3512201,382.3512201,382.3512201,382.3512201,382.367997,383.3513572,383.3513572,384.1352146,,,,,z,1,0.7823988,None,F2,1,2025-10-01_18h50.07.105,Motor sequence,,2025.1.1,59.85525807,2025-10-01 18h51.03.497985 +0530
-150,z,51,51,16,z,1,0.9474989,None,,,,,16,51,51,3,384.1510005,,384.1356674,384.1510005,385.1346034,385.1346034,385.1346034,385.1346034,385.1510165,386.1345216,386.1345216,387.08504,,,,,z,1,0.9474989,None,F2,1,2025-10-01_18h50.07.105,Motor sequence,,2025.1.1,59.85525807,2025-10-01 18h51.03.497985 +0530
-150,z,52,52,17,z,1,0.5588423,None,,,,,17,52,52,3,387.1007605,,387.0854962,387.1007605,388.1011264,388.1011264,388.1011264,388.1011264,388.1011264,389.1009898,389.1009898,389.6680111,,,,,z,1,0.5588423,None,F2,1,2025-10-01_18h50.07.105,Motor sequence,,2025.1.1,59.85525807,2025-10-01 18h51.03.497985 +0530
50,c,53,53,10,c,1,0.9856116,None,,,,,10,53,53,2,389.6840218,,389.6685449,389.6840218,390.66752,390.66752,390.66752,390.66752,390.68409,391.6673892,391.6673892,392.6678958,,,,,c,1,0.9856116,None,F2,1,2025-10-01_18h50.07.105,Motor sequence,,2025.1.1,59.85525807,2025-10-01 18h51.03.497985 +0530
50,c,54,54,11,c,1,1.0834839,None,,,,,11,54,54,2,392.6838657,,392.6684471,392.6838657,393.6672086,393.6672086,393.6672086,393.6672086,393.6840987,394.6673343,394.6673343,395.7675864,,,,,c,1,1.0834839,None,F2,1,2025-10-01_18h50.07.105,Motor sequence,,2025.1.1,59.85525807,2025-10-01 18h51.03.497985 +0530
-50,x,55,55,10,x,1,0.5467718,None,,,,,10,55,55,0,395.7837304,,395.7680432,395.7837304,396.7669868,396.7669868,396.7669868,396.7669868,396.7837397,397.766952,397.766952,398.3177153,,,,,x,1,0.5467718,None,F2,1,2025-10-01_18h50.07.105,Motor sequence,,2025.1.1,59.85525807,2025-10-01 18h51.03.497985 +0530
50,c,56,56,12,c,1,0.7396473,None,,,,,12,56,56,2,398.3334378,,398.3181696,398.3334378,399.3336962,399.3336962,399.3336962,399.3336962,399.3336962,400.3169446,400.3169446,401.067373,,,,,c,1,0.7396473,None,F2,1,2025-10-01_18h50.07.105,Motor sequence,,2025.1.1,59.85525807,2025-10-01 18h51.03.497985 +0530
50,c,57,57,13,c,1,0.3729865,None,,,,,13,57,57,2,401.0834683,,401.0678352,401.0834683,402.0665243,402.0665243,402.0665243,402.0665243,402.0833691,403.0664201,403.0664201,403.4506462,,,,,c,1,0.3729865,None,F2,1,2025-10-01_18h50.07.105,Motor sequence,,2025.1.1,59.85525807,2025-10-01 18h51.03.497985 +0530
150,v,58,58,15,v,1,0.6021442,None,,,,,15,58,58,1,403.4663236,,403.4510943,403.4663236,404.4665032,404.4665032,404.4665032,404.4665032,404.4665032,405.4497053,405.4497053,406.0668672,,,,,v,1,0.6021442,None,F2,1,2025-10-01_18h50.07.105,Motor sequence,,2025.1.1,59.85525807,2025-10-01 18h51.03.497985 +0530
50,c,59,59,14,c,1,0.6178953,None,,,,,14,59,59,2,406.083082,,406.0673159,406.083082,407.0663232,407.0663232,407.0663232,407.0663232,407.0830322,408.066411,408.066411,408.7002323,,,,,c,1,0.6178953,None,F2,1,2025-10-01_18h50.07.105,Motor sequence,,2025.1.1,59.85525807,2025-10-01 18h51.03.497985 +0530
-150,z,60,60,18,z,1,0.6632371,None,,,,,18,60,60,3,408.7163639,,408.7006899,408.7163639,409.6995339,409.6995339,409.6995339,409.6995339,409.7164085,410.6997847,410.6997847,411.3670318,,,,,z,1,0.6632371,None,F2,1,2025-10-01_18h50.07.105,Motor sequence,,2025.1.1,59.85525807,2025-10-01 18h51.03.497985 +0530
-150,z,61,61,19,z,1,0.8947242,None,,,,,19,61,61,3,411.3826396,,411.3674968,411.3826396,412.3662426,412.3662426,412.3662426,412.3662426,412.3830335,413.3659304,413.3659304,414.2666415,,,,,z,1,0.8947242,None,F2,1,2025-10-01_18h50.07.105,Motor sequence,,2025.1.1,59.85525807,2025-10-01 18h51.03.497985 +0530
50,c,62,62,15,c,1,0.9324504,None,,,,,15,62,62,2,414.2828552,,414.2671195,414.2828552,415.2660751,415.2660751,415.2660751,415.2660751,415.2825916,416.2659295,416.2659295,417.1999372,,,,,c,1,0.9324504,None,F2,1,2025-10-01_18h50.07.105,Motor sequence,,2025.1.1,59.85525807,2025-10-01 18h51.03.497985 +0530
50,c,63,63,16,c,1,0.6135007,None,,,,,16,63,63,2,417.2159518,,417.2004004,417.2159518,418.1991481,418.1991481,418.1991481,418.1991481,418.2157018,419.1990082,419.1990082,419.8164737,,,,,c,1,0.6135007,None,F2,1,2025-10-01_18h50.07.105,Motor sequence,,2025.1.1,59.85525807,2025-10-01 18h51.03.497985 +0530
-50,x,64,64,11,x,1,0.6233816,None,,,,,11,64,64,0,419.8320746,,419.8170574,419.8320746,420.815742,420.815742,420.815742,420.815742,420.8324673,421.8153065,421.8153065,422.4495361,,,,,x,1,0.6233816,None,F2,1,2025-10-01_18h50.07.105,Motor sequence,,2025.1.1,59.85525807,2025-10-01 18h51.03.497985 +0530
150,v,65,65,16,v,1,0.5801268,None,,,,,16,65,65,1,422.4654061,,422.4503513,422.4654061,423.448674,423.448674,423.448674,423.448674,423.4653003,424.4488237,424.4488237,425.0328907,,,,,v,1,0.5801268,None,F2,1,2025-10-01_18h50.07.105,Motor sequence,,2025.1.1,59.85525807,2025-10-01 18h51.03.497985 +0530
-50,x,66,66,12,x,1,0.6173751,None,,,,,12,66,66,0,425.0487125,,425.0333774,425.0487125,426.0487701,426.0487701,426.0487701,426.0487701,426.0487701,427.0320641,427.0320641,427.6657238,,,,,x,1,0.6173751,None,F2,1,2025-10-01_18h50.07.105,Motor sequence,,2025.1.1,59.85525807,2025-10-01 18h51.03.497985 +0530
150,v,67,67,17,v,1,0.9386955,None,,,,,17,67,67,1,427.6819618,,427.666181,427.6819618,428.6650556,428.6650556,428.6650556,428.6650556,428.6817401,429.6651071,429.6651071,430.6155741,,,,,v,1,0.9386955,None,F2,1,2025-10-01_18h50.07.105,Motor sequence,,2025.1.1,59.85525807,2025-10-01 18h51.03.497985 +0530
-50,x,68,68,13,x,1,0.3354299,None,,,,,13,68,68,0,430.6315577,,430.61624,430.6315577,431.6149488,431.6149488,431.6149488,431.6149488,431.6318379,432.6147951,432.6147951,432.9653959,,,,,x,1,0.3354299,None,F2,1,2025-10-01_18h50.07.105,Motor sequence,,2025.1.1,59.85525807,2025-10-01 18h51.03.497985 +0530
50,c,69,69,17,c,1,0.6888606,None,,,,,17,69,69,2,432.9815535,,432.9658623,432.9815535,433.9645696,433.9645696,433.9645696,433.9645696,433.9816114,434.9646581,434.9646581,435.6652257,,,,,c,1,0.6888606,None,F2,1,2025-10-01_18h50.07.105,Motor sequence,,2025.1.1,59.85525807,2025-10-01 18h51.03.497985 +0530
-50,x,70,70,14,x,1,0.496626,None,,,,,14,70,70,0,435.6814286,,435.6656827,435.6814286,436.6646777,436.6646777,436.6646777,436.6646777,436.6814148,437.6645845,437.6645845,438.1651758,,,,,x,1,0.496626,None,F2,1,2025-10-01_18h50.07.105,Motor sequence,,2025.1.1,59.85525807,2025-10-01 18h51.03.497985 +0530
50,c,71,71,18,c,1,0.4538499,None,,,,,18,71,71,2,438.1810827,,438.1656286,438.1810827,439.1644022,439.1644022,439.1644022,439.1644022,439.1811872,440.1644024,440.1644024,440.6316404,,,,,c,1,0.4538499,None,F2,1,2025-10-01_18h50.07.105,Motor sequence,,2025.1.1,59.85525807,2025-10-01 18h51.03.497985 +0530
-50,x,72,72,15,x,1,0.9071312,None,,,,,15,72,72,0,440.6475965,,440.6324445,440.6475965,441.6307236,441.6307236,441.6307236,441.6307236,441.6475165,442.6308847,442.6308847,443.5484743,,,,,x,1,0.9071312,None,F2,1,2025-10-01_18h50.07.105,Motor sequence,,2025.1.1,59.85525807,2025-10-01 18h51.03.497985 +0530
-50,x,73,73,16,x,1,0.6818218,None,,,,,16,73,73,0,443.5638495,,443.5489286,443.5638495,444.5639477,444.5639477,444.5639477,444.5639477,444.5639477,445.5475755,445.5475755,446.2312859,,,,,x,1,0.6818218,None,F2,1,2025-10-01_18h50.07.105,Motor sequence,,2025.1.1,59.85525807,2025-10-01 18h51.03.497985 +0530
150,v,74,74,18,v,1,0.6217106,None,,,,,18,74,74,1,446.2473453,,446.2317465,446.2473453,447.2308179,447.2308179,447.2308179,447.2308179,447.2475093,448.2307321,448.2307321,448.8645393,,,,,v,1,0.6217106,None,F2,1,2025-10-01_18h50.07.105,Motor sequence,,2025.1.1,59.85525807,2025-10-01 18h51.03.497985 +0530
150,v,75,75,19,v,1,0.6075209,None,,,,,19,75,75,1,448.8805186,,448.8649888,448.8805186,449.8638792,449.8638792,449.8638792,449.8638792,449.8806518,450.8637603,450.8637603,451.4809166,,,,,v,1,0.6075209,None,F2,1,2025-10-01_18h50.07.105,Motor sequence,,2025.1.1,59.85525807,2025-10-01 18h51.03.497985 +0530
150,v,76,76,20,v,1,0.5628652,None,,,,,20,76,76,1,451.497121,,451.4813747,451.497121,452.4805306,452.4805306,452.4805306,452.4805306,452.4970877,453.4802813,453.4802813,454.0474162,,,,,v,1,0.5628652,None,F2,1,2025-10-01_18h50.07.105,Motor sequence,,2025.1.1,59.85525807,2025-10-01 18h51.03.497985 +0530
150,v,77,77,21,v,1,0.5801406,None,,,,,21,77,77,1,454.0633243,,454.0478866,454.0633243,455.046938,455.046938,455.046938,455.046938,455.0635206,456.0468342,456.0468342,456.630913,,,,,v,1,0.5801406,None,F2,1,2025-10-01_18h50.07.105,Motor sequence,,2025.1.1,59.85525807,2025-10-01 18h51.03.497985 +0530
-50,x,78,78,17,x,1,0.5929161,None,,,,,17,78,78,0,456.6468207,,456.6313693,456.6468207,457.6301708,457.6301708,457.6301708,457.6301708,457.6467229,458.6298647,458.6298647,459.2305334,,,,,x,1,0.5929161,None,F2,1,2025-10-01_18h50.07.105,Motor sequence,,2025.1.1,59.85525807,2025-10-01 18h51.03.497985 +0530
-150,z,79,79,20,z,1,0.6805335,None,,,,,20,79,79,3,459.2464023,,459.2309884,459.2464023,460.2302878,460.2302878,460.2302878,460.2302878,460.2466015,461.2298909,461.2298909,461.9135745,,,,,z,1,0.6805335,None,F2,1,2025-10-01_18h50.07.105,Motor sequence,,2025.1.1,59.85525807,2025-10-01 18h51.03.497985 +0530
-50,x,80,80,18,x,1,0.6850205,None,,,,,18,80,80,0,461.9296448,,461.9140415,461.9296448,462.9129386,462.9129386,462.9129386,462.9129386,462.929675,463.9131445,463.9131445,464.6134727,,,,,x,1,0.6850205,None,F2,1,2025-10-01_18h50.07.105,Motor sequence,,2025.1.1,59.85525807,2025-10-01 18h51.03.497985 +0530
-50,x,81,81,19,x,1,0.5241453,None,,,,,19,81,81,0,464.6297042,,464.613952,464.6297042,465.6128861,465.6128861,465.6128861,465.6128861,465.6297248,466.6127872,466.6127872,467.1470625,,,,,x,1,0.5241453,None,F2,1,2025-10-01_18h50.07.105,Motor sequence,,2025.1.1,59.85525807,2025-10-01 18h51.03.497985 +0530
50,c,82,82,19,c,1,0.4887827,None,,,,,19,82,82,2,467.1625358,,467.1475209,467.1625358,468.1628143,468.1628143,468.1628143,468.1628143,468.1628143,469.1459201,469.1459201,469.6466639,,,,,c,1,0.4887827,None,F2,1,2025-10-01_18h50.07.105,Motor sequence,,2025.1.1,59.85525807,2025-10-01 18h51.03.497985 +0530
-150,z,83,83,21,z,1,0.6701606,None,,,,,21,83,83,3,469.6625229,,469.6471274,469.6625229,470.6459925,470.6459925,470.6459925,470.6459925,470.6626163,471.6458672,471.6458672,472.3296134,,,,,z,1,0.6701606,None,F2,1,2025-10-01_18h50.07.105,Motor sequence,,2025.1.1,59.85525807,2025-10-01 18h51.03.497985 +0530
-150,z,84,84,22,z,1,0.7303447,None,,,,,22,84,84,3,472.3457831,,472.3300776,472.3457831,473.3291459,473.3291459,473.3291459,473.3291459,473.3457636,474.3290117,474.3290117,475.0627458,,,,,z,1,0.7303447,None,F2,1,2025-10-01_18h50.07.105,Motor sequence,,2025.1.1,59.85525807,2025-10-01 18h51.03.497985 +0530
50,c,85,85,20,c,1,0.904334,None,,,,,20,85,85,2,475.0789118,,475.0631962,475.0789118,476.0623673,476.0623673,476.0623673,476.0623673,476.0789994,477.0621803,477.0621803,477.9795152,,,,,c,1,0.904334,None,F2,1,2025-10-01_18h50.07.105,Motor sequence,,2025.1.1,59.85525807,2025-10-01 18h51.03.497985 +0530
50,c,86,86,21,c,1,0.6506487,None,,,,,21,86,86,2,477.995284,,477.9799808,477.995284,478.9788157,478.9788157,478.9788157,478.9788157,478.9954697,479.9788085,479.9788085,480.6460323,,,,,c,1,0.6506487,None,F2,1,2025-10-01_18h50.07.105,Motor sequence,,2025.1.1,59.85525807,2025-10-01 18h51.03.497985 +0530
150,v,87,87,22,v,1,0.6017059,None,,,,,22,87,87,1,480.6616929,,480.6464876,480.6616929,481.6450101,481.6450101,481.6450101,481.6450101,481.6617003,482.6450342,482.6450342,483.2621531,,,,,v,1,0.6017059,None,F2,1,2025-10-01_18h50.07.105,Motor sequence,,2025.1.1,59.85525807,2025-10-01 18h51.03.497985 +0530
-50,x,88,88,20,x,1,0.4326664,None,,,,,20,88,88,0,483.2784369,,483.2626238,483.2784369,484.2615716,484.2615716,484.2615716,484.2615716,484.2784549,485.2617486,485.2617486,485.6958364,,,,,x,1,0.4326664,None,F2,1,2025-10-01_18h50.07.105,Motor sequence,,2025.1.1,59.85525807,2025-10-01 18h51.03.497985 +0530
-50,x,89,89,21,x,1,0.4315588,None,,,,,21,89,89,0,485.7113887,,485.6963015,485.7113887,486.6949979,486.6949979,486.6949979,486.6949979,486.7114243,487.6951261,487.6951261,488.1287878,,,,,x,1,0.4315588,None,F2,1,2025-10-01_18h50.07.105,Motor sequence,,2025.1.1,59.85525807,2025-10-01 18h51.03.497985 +0530
-50,x,90,90,22,x,1,0.5067475,None,,,,,22,90,90,0,488.1448555,,488.1292526,488.1448555,489.1282841,489.1282841,489.1282841,489.1282841,489.1449976,490.128048,490.128048,490.6454763,,,,,x,1,0.5067475,None,F2,1,2025-10-01_18h50.07.105,Motor sequence,,2025.1.1,59.85525807,2025-10-01 18h51.03.497985 +0530
-50,x,91,91,23,x,1,0.4430053,None,,,,,23,91,91,0,490.6615294,,490.6459265,490.6615294,491.6446445,491.6446445,491.6446445,491.6446445,491.661281,492.6446591,492.6446591,493.095123,,,,,x,1,0.4430053,None,F2,1,2025-10-01_18h50.07.105,Motor sequence,,2025.1.1,59.85525807,2025-10-01 18h51.03.497985 +0530
150,v,92,92,23,v,1,0.5696915,None,,,,,23,92,92,1,493.1110022,,493.0955987,493.1110022,494.0944723,494.0944723,494.0944723,494.0944723,494.1111357,495.0945834,495.0945834,495.6783156,,,,,v,1,0.5696915,None,F2,1,2025-10-01_18h50.07.105,Motor sequence,,2025.1.1,59.85525807,2025-10-01 18h51.03.497985 +0530
50,c,93,93,22,c,1,0.8447715,None,,,,,22,93,93,2,495.6944242,,495.6787706,495.6944242,496.6777772,496.6777772,496.6777772,496.6777772,496.6945141,497.6776737,497.6776737,498.52822,,,,,c,1,0.8447715,None,F2,1,2025-10-01_18h50.07.105,Motor sequence,,2025.1.1,59.85525807,2025-10-01 18h51.03.497985 +0530
150,v,94,94,24,v,1,0.4427746,None,,,,,24,94,94,1,498.5441405,,498.5288634,498.5441405,499.5277256,499.5277256,499.5277256,499.5277256,499.5438474,500.52749,500.52749,500.9779822,,,,,v,1,0.4427746,None,F2,1,2025-10-01_18h50.07.105,Motor sequence,,2025.1.1,59.85525807,2025-10-01 18h51.03.497985 +0530
-150,z,95,95,23,z,1,0.6544297,None,,,,,23,95,95,3,500.9942685,,500.9784603,500.9942685,501.9940012,501.9940012,501.9940012,501.9940012,501.9940012,502.9774673,502.9774673,503.6440521,,,,,z,1,0.6544297,None,F2,1,2025-10-01_18h50.07.105,Motor sequence,,2025.1.1,59.85525807,2025-10-01 18h51.03.497985 +0530
-150,z,96,96,24,z,1,0.496028,None,,,,,24,96,96,3,503.6600737,,503.6444337,503.6600737,504.6435834,504.6435834,504.6435834,504.6435834,504.660453,505.6439376,505.6439376,506.1441399,,,,,z,1,0.496028,None,F2,1,2025-10-01_18h50.07.105,Motor sequence,,2025.1.1,59.85525807,2025-10-01 18h51.03.497985 +0530
50,c,97,97,23,c,1,1.1549576,None,,,,,23,97,97,2,506.160252,,506.1449309,506.160252,507.1438394,507.1438394,507.1438394,507.1438394,507.1603782,508.1438155,508.1438155,509.3107912,,,,,c,1,1.1549576,None,F2,1,2025-10-01_18h50.07.105,Motor sequence,,2025.1.1,59.85525807,2025-10-01 18h51.03.497985 +0530
-50,x,98,98,24,x,1,1.1859122,None,,,,,24,98,98,0,509.3268461,,509.3115324,509.3268461,510.3102038,510.3102038,510.3102038,510.3102038,510.3268355,511.3099936,511.3099936,512.5108309,,,,,x,1,1.1859122,None,F2,1,2025-10-01_18h50.07.105,Motor sequence,,2025.1.1,59.85525807,2025-10-01 18h51.03.497985 +0530
50,c,99,99,24,c,1,0.9323181,None,,,,,24,99,99,2,512.5265039,,512.5113441,512.5265039,513.5098963,513.5098963,513.5098963,513.5098963,513.5266475,514.5267553,514.5267553,515.4604092,,,,,c,1,0.9323181,None,F2,1,2025-10-01_18h50.07.105,Motor sequence,,2025.1.1,59.85525807,2025-10-01 18h51.03.497985 +0530
