pos,corr_resp,thisN,thisTrialN,thisRepN,key_resp.keys,key_resp.corr,key_resp.rt,key_resp.duration,trials.thisRepN,trials.thisTrialN,trials.thisN,trials.thisIndex,trials_2.thisRepN,trials_2.thisTrialN,trials_2.thisN,trials_2.thisIndex,thisRow.t,notes,trial.started,fixtion.started,line1.started,line2.started,line3.started,line4.started,fixtion.stopped,probe.started,key_resp.started,trial.stopped,trials.key_resp.keys,trials.key_resp.corr,trials.key_resp.rt,trials.key_resp.duration,trials_2.key_resp.keys,trials_2.key_resp.corr,trials_2.key_resp.rt,trials_2.key_resp.duration,participant,session,date,expName,expVersion,psychopyVersion,frameRate,expStart
-50,x,0,0,0,x,1,1.2465412,None,0,0,0,0,,,,,0.0170867,,0.0097506,0.0170867,1.0125997,1.0125997,1.0125997,1.0125997,1.0288136,2.0122046,2.0122046,3.2898818,x,1,1.2465412,None,,,,,F3,1,2025-10-02_08h59.55.562,Motor sequence,,2025.1.1,59.9726045,2025-10-02 09h00.31.495488 +0530
150,v,1,1,0,v,1,0.3296333,None,0,1,1,1,,,,,3.294935,,3.2901778,3.294935,4.295529,4.295529,4.295529,4.295529,4.295529,5.2954753,5.2954753,5.6292218,v,1,0.3296333,None,,,,,F3,1,2025-10-02_08h59.55.562,Motor sequence,,2025.1.1,59.9726045,2025-10-02 09h00.31.495488 +0530
50,c,2,2,0,c,1,0.3138115,None,0,2,2,2,,,,,5.6457207,,5.6296646,5.6457207,6.629055,6.629055,6.629055,6.629055,6.6456045,7.6287754,7.6287754,7.9461689,c,1,0.3138115,None,,,,,F3,1,2025-10-02_08h59.55.562,Motor sequence,,2025.1.1,59.9726045,2025-10-02 09h00.31.495488 +0530
-150,z,3,3,0,z,1,0.3955255,None,0,3,3,3,,,,,7.9625604,,7.9466112,7.9625604,8.9456871,8.9456871,8.9456871,8.9456871,8.9620642,9.9451279,9.9451279,10.3458623,z,1,0.3955255,None,,,,,F3,1,2025-10-02_08h59.55.562,Motor sequence,,2025.1.1,59.9726045,2025-10-02 09h00.31.495488 +0530
-50,x,4,0,1,x,1,0.3679888,None,1,0,4,0,,,,,10.3619089,,10.3463176,10.3619089,11.3451899,11.3451899,11.3451899,11.3451899,11.3616646,12.3447364,12.3447364,12.7286064,x,1,0.3679888,None,,,,,F3,1,2025-10-02_08h59.55.562,Motor sequence,,2025.1.1,59.9726045,2025-10-02 09h00.31.495488 +0530
150,v,5,1,1,v,1,0.2872632,None,1,1,5,1,,,,,12.7448739,,12.728827,12.7448739,13.7278887,13.7278887,13.7278887,13.7278887,13.7446646,14.7284103,14.7284103,15.0284626,v,1,0.2872632,None,,,,,F3,1,2025-10-02_08h59.55.562,Motor sequence,,2025.1.1,59.9726045,2025-10-02 09h00.31.495488 +0530
50,c,6,2,1,c,1,0.2611235,None,1,2,6,2,,,,,15.0448477,,15.0286942,15.0448477,16.0283418,16.0283418,16.0283418,16.0283418,16.0447068,17.0282424,17.0282424,17.2957273,c,1,0.2611235,None,,,,,F3,1,2025-10-02_08h59.55.562,Motor sequence,,2025.1.1,59.9726045,2025-10-02 09h00.31.495488 +0530
-150,z,7,3,1,z,1,0.3718636,None,1,3,7,3,,,,,17.3115045,,17.2961708,17.3115045,18.2948238,18.2948238,18.2948238,18.2948238,18.3116444,19.3113149,19.3113149,19.6953725,z,1,0.3718636,None,,,,,F3,1,2025-10-02_08h59.55.562,Motor sequence,,2025.1.1,59.9726045,2025-10-02 09h00.31.495488 +0530
-50,x,8,0,2,x,1,0.4402393,None,2,0,8,0,,,,,19.7113453,,19.6958641,19.7113453,20.6946133,20.6946133,20.6946133,20.6946133,20.7111722,21.6944895,21.6944895,22.1454189,x,1,0.4402393,None,,,,,F3,1,2025-10-02_08h59.55.562,Motor sequence,,2025.1.1,59.9726045,2025-10-02 09h00.31.495488 +0530
150,v,9,1,2,v,1,0.5306208,None,2,1,9,1,,,,,22.1611393,,22.1459512,22.1611393,23.1613204,23.1613204,23.1613204,23.1613204,23.1613204,24.1611596,24.1611596,24.6950798,v,1,0.5306208,None,,,,,F3,1,2025-10-02_08h59.55.562,Motor sequence,,2025.1.1,59.9726045,2025-10-02 09h00.31.495488 +0530
50,c,10,2,2,c,1,0.2804129,None,2,2,10,2,,,,,24.7108563,,24.695542,24.7108563,25.711185,25.711185,25.711185,25.711185,25.711185,26.6943612,26.6943612,26.9783925,c,1,0.2804129,None,,,,,F3,1,2025-10-02_08h59.55.562,Motor sequence,,2025.1.1,59.9726045,2025-10-02 09h00.31.495488 +0530
-150,z,11,3,2,z,1,0.2501636,None,2,3,11,3,,,,,26.9942227,,26.9789092,26.9942227,27.9941248,27.9941248,27.9941248,27.9941248,27.9941248,28.9774412,28.9774412,29.2448745,z,1,0.2501636,None,,,,,F3,1,2025-10-02_08h59.55.562,Motor sequence,,2025.1.1,59.9726045,2025-10-02 09h00.31.495488 +0530
-50,x,12,0,3,x,1,0.4057686,None,3,0,12,0,,,,,29.2610386,,29.2453428,29.2610386,30.2442392,30.2442392,30.2442392,30.2442392,30.2609321,31.2441683,31.2441683,31.6613695,x,1,0.4057686,None,,,,,F3,1,2025-10-02_08h59.55.562,Motor sequence,,2025.1.1,59.9726045,2025-10-02 09h00.31.495488 +0530
150,v,13,1,3,v,1,0.3370559,None,3,1,13,1,,,,,31.6774117,,31.6618556,31.6774117,32.660834,32.660834,32.660834,32.660834,32.6770638,33.6607037,33.6607037,34.011243,v,1,0.3370559,None,,,,,F3,1,2025-10-02_08h59.55.562,Motor sequence,,2025.1.1,59.9726045,2025-10-02 09h00.31.495488 +0530
50,c,14,2,3,c,1,0.2640019,None,3,2,14,2,,,,,34.0271232,,34.0117836,34.0271232,35.0105715,35.0105715,35.0105715,35.0105715,35.0270289,36.0269276,36.0269276,36.2944511,c,1,0.2640019,None,,,,,F3,1,2025-10-02_08h59.55.562,Motor sequence,,2025.1.1,59.9726045,2025-10-02 09h00.31.495488 +0530
-150,z,15,3,3,z,1,0.1993471,None,3,3,15,3,,,,,36.310541,,36.2949503,36.310541,37.2938291,37.2938291,37.2938291,37.2938291,37.3102262,38.2934481,38.2934481,38.4942717,z,1,0.1993471,None,,,,,F3,1,2025-10-02_08h59.55.562,Motor sequence,,2025.1.1,59.9726045,2025-10-02 09h00.31.495488 +0530
-50,x,16,0,4,x,1,0.2782353,None,4,0,16,0,,,,,38.5099494,,38.4948538,38.5099494,39.4934378,39.4934378,39.4934378,39.4934378,39.5103134,40.4934127,40.4934127,40.7774438,x,1,0.2782353,None,,,,,F3,1,2025-10-02_08h59.55.562,Motor sequence,,2025.1.1,59.9726045,2025-10-02 09h00.31.495488 +0530
150,v,17,1,4,v,1,0.2361035,None,4,1,17,1,,,,,40.7933847,,40.777916,40.7933847,41.7767874,41.7767874,41.7767874,41.7767874,41.7935105,42.7767853,42.7767853,43.027181,v,1,0.2361035,None,,,,,F3,1,2025-10-02_08h59.55.562,Motor sequence,,2025.1.1,59.9726045,2025-10-02 09h00.31.495488 +0530
50,c,18,2,4,c,1,0.2499306,None,4,2,18,2,,,,,43.0434878,,43.0276244,43.0434878,44.0267579,44.0267579,44.0267579,44.0267579,44.0434452,45.0265868,45.0265868,45.2771155,c,1,0.2499306,None,,,,,F3,1,2025-10-02_08h59.55.562,Motor sequence,,2025.1.1,59.9726045,2025-10-02 09h00.31.495488 +0530
-150,z,19,3,4,z,1,0.267209,None,4,3,19,3,,,,,45.2931671,,45.277552,45.2931671,46.276409,46.276409,46.276409,46.276409,46.2933548,47.2763262,47.2763262,47.5604195,z,1,0.267209,None,,,,,F3,1,2025-10-02_08h59.55.562,Motor sequence,,2025.1.1,59.9726045,2025-10-02 09h00.31.495488 +0530
-50,x,20,0,5,x,1,0.4268615,None,5,0,20,0,,,,,47.5762345,,47.5608585,47.5762345,48.5597416,48.5597416,48.5597416,48.5597416,48.5764006,49.5593996,49.5593996,49.9934314,x,1,0.4268615,None,,,,,F3,1,2025-10-02_08h59.55.562,Motor sequence,,2025.1.1,59.9726045,2025-10-02 09h00.31.495488 +0530
150,v,21,1,5,v,1,0.6513427,None,5,1,21,1,,,,,50.0094824,,49.993882,50.0094824,50.9928599,50.9928599,50.9928599,50.9928599,51.0094953,51.992859,51.992859,52.6601569,v,1,0.6513427,None,,,,,F3,1,2025-10-02_08h59.55.562,Motor sequence,,2025.1.1,59.9726045,2025-10-02 09h00.31.495488 +0530
50,c,22,2,5,c,1,0.3374043,None,5,2,22,2,,,,,52.6760196,,52.6606063,52.6760196,53.6592752,53.6592752,53.6592752,53.6592752,53.6761995,54.6594892,54.6594892,55.00974,c,1,0.3374043,None,,,,,F3,1,2025-10-02_08h59.55.562,Motor sequence,,2025.1.1,59.9726045,2025-10-02 09h00.31.495488 +0530
-150,z,23,3,5,z,1,0.2464105,None,5,3,23,3,,,,,55.0260228,,55.0101922,55.0260228,56.0092633,56.0092633,56.0092633,56.0092633,56.0260443,57.0090001,57.0090001,57.2596692,z,1,0.2464105,None,,,,,F3,1,2025-10-02_08h59.55.562,Motor sequence,,2025.1.1,59.9726045,2025-10-02 09h00.31.495488 +0530
-50,x,24,0,6,x,1,0.2978101,None,6,0,24,0,,,,,57.2756497,,57.2601211,57.2756497,58.2593215,58.2593215,58.2593215,58.2593215,58.2758713,59.2591633,59.2591633,59.5597214,x,1,0.2978101,None,,,,,F3,1,2025-10-02_08h59.55.562,Motor sequence,,2025.1.1,59.9726045,2025-10-02 09h00.31.495488 +0530
150,v,25,1,6,v,1,0.3361085,None,6,1,25,1,,,,,59.5759212,,59.5601773,59.5759212,60.5588601,60.5588601,60.5588601,60.5588601,60.5756717,61.559052,61.559052,61.9093026,v,1,0.3361085,None,,,,,F3,1,2025-10-02_08h59.55.562,Motor sequence,,2025.1.1,59.9726045,2025-10-02 09h00.31.495488 +0530
50,c,26,2,6,c,1,0.3087749,None,6,2,26,2,,,,,61.9254228,,61.909755,61.9254228,62.9087967,62.9087967,62.9087967,62.9087967,62.9254582,63.9087555,63.9087555,64.2258999,c,1,0.3087749,None,,,,,F3,1,2025-10-02_08h59.55.562,Motor sequence,,2025.1.1,59.9726045,2025-10-02 09h00.31.495488 +0530
-150,z,27,3,6,z,1,0.4449356,None,6,3,27,3,,,,,64.2421684,,64.2263517,64.2421684,65.2253909,65.2253909,65.2253909,65.2253909,65.2419903,66.2250278,66.2250278,66.6756965,z,1,0.4449356,None,,,,,F3,1,2025-10-02_08h59.55.562,Motor sequence,,2025.1.1,59.9726045,2025-10-02 09h00.31.495488 +0530
-50,x,28,0,7,x,1,0.4026518,None,7,0,28,0,,,,,66.6920889,,66.6761264,66.6920889,67.675145,67.675145,67.675145,67.675145,67.691765,68.6753676,68.6753676,69.0924431,x,1,0.4026518,None,,,,,F3,1,2025-10-02_08h59.55.562,Motor sequence,,2025.1.1,59.9726045,2025-10-02 09h00.31.495488 +0530
150,v,29,1,7,v,1,0.3100274,None,7,1,29,1,,,,,69.1083128,,69.0929478,69.1083128,70.1080349,70.1080349,70.1080349,70.1080349,70.1080349,71.0916814,71.0916814,71.4088577,v,1,0.3100274,None,,,,,F3,1,2025-10-02_08h59.55.562,Motor sequence,,2025.1.1,59.9726045,2025-10-02 09h00.31.495488 +0530
50,c,30,2,7,c,1,0.2099197,None,7,2,30,2,,,,,71.4249159,,71.4093021,71.4249159,72.4081211,72.4081211,72.4081211,72.4081211,72.4250105,73.4084154,73.4084154,73.6254108,c,1,0.2099197,None,,,,,F3,1,2025-10-02_08h59.55.562,Motor sequence,,2025.1.1,59.9726045,2025-10-02 09h00.31.495488 +0530
-150,z,31,3,7,z,1,0.1924451,None,7,3,31,3,,,,,73.6416473,,73.6258553,73.6416473,74.6248587,74.6248587,74.6248587,74.6248587,74.6413654,75.6248192,75.6248192,75.8252271,z,1,0.1924451,None,,,,,F3,1,2025-10-02_08h59.55.562,Motor sequence,,2025.1.1,59.9726045,2025-10-02 09h00.31.495488 +0530
-50,x,32,0,8,x,1,0.2992284,None,8,0,32,0,,,,,75.841381,,75.8256699,75.841381,76.8243855,76.8243855,76.8243855,76.8243855,76.84142,77.8244919,77.8244919,78.1252475,x,1,0.2992284,None,,,,,F3,1,2025-10-02_08h59.55.562,Motor sequence,,2025.1.1,59.9726045,2025-10-02 09h00.31.495488 +0530
150,v,33,1,8,v,1,0.4169713,None,8,1,33,1,,,,,78.1413713,,78.1257598,78.1413713,79.1246152,79.1246152,79.1246152,79.1246152,79.141046,80.1243129,80.1243129,80.5582196,v,1,0.4169713,None,,,,,F3,1,2025-10-02_08h59.55.562,Motor sequence,,2025.1.1,59.9726045,2025-10-02 09h00.31.495488 +0530
50,c,34,2,8,c,1,0.2770511,None,8,2,34,2,,,,,80.5742067,,80.5586636,80.5742067,81.5578616,81.5578616,81.5578616,81.5578616,81.5742228,82.5572905,82.5572905,82.8415438,c,1,0.2770511,None,,,,,F3,1,2025-10-02_08h59.55.562,Motor sequence,,2025.1.1,59.9726045,2025-10-02 09h00.31.495488 +0530
-150,z,35,3,8,z,1,0.3509182,None,8,3,35,3,,,,,82.8578454,,82.8420575,82.8578454,83.8407908,83.8407908,83.8407908,83.8407908,83.8576824,84.8407086,84.8407086,85.2082089,z,1,0.3509182,None,,,,,F3,1,2025-10-02_08h59.55.562,Motor sequence,,2025.1.1,59.9726045,2025-10-02 09h00.31.495488 +0530
-50,x,36,0,9,x,1,0.3719665,None,9,0,36,0,,,,,85.2242192,,85.2086563,85.2242192,86.2237766,86.2237766,86.2237766,86.2237766,86.2237766,87.2076327,87.2076327,87.5913098,x,1,0.3719665,None,,,,,F3,1,2025-10-02_08h59.55.562,Motor sequence,,2025.1.1,59.9726045,2025-10-02 09h00.31.495488 +0530
150,v,37,1,9,v,1,0.2612382,None,9,1,37,1,,,,,87.6072928,,87.5918569,87.6072928,88.5906588,88.5906588,88.5906588,88.5906588,88.6072183,89.5908645,89.5908645,89.8579218,v,1,0.2612382,None,,,,,F3,1,2025-10-02_08h59.55.562,Motor sequence,,2025.1.1,59.9726045,2025-10-02 09h00.31.495488 +0530
50,c,38,2,9,c,1,0.3234532,None,9,2,38,2,,,,,89.8739495,,89.8583699,89.8739495,90.8572007,90.8572007,90.8572007,90.8572007,90.8737301,91.8570942,91.8570942,92.1911534,c,1,0.3234532,None,,,,,F3,1,2025-10-02_08h59.55.562,Motor sequence,,2025.1.1,59.9726045,2025-10-02 09h00.31.495488 +0530
-150,z,39,3,9,z,1,0.3656556,None,9,3,39,3,,,,,92.207037,,92.191643,92.207037,93.2069636,93.2069636,93.2069636,93.2069636,93.2069636,94.206906,94.206906,94.5739659,z,1,0.3656556,None,,,,,F3,1,2025-10-02_08h59.55.562,Motor sequence,,2025.1.1,59.9726045,2025-10-02 09h00.31.495488 +0530
-50,x,40,0,10,x,1,0.4318095,None,10,0,40,0,,,,,94.5902853,,94.574424,94.5902853,95.5735524,95.5735524,95.5735524,95.5735524,95.5899675,96.5735444,96.5735444,97.0073837,x,1,0.4318095,None,,,,,F3,1,2025-10-02_08h59.55.562,Motor sequence,,2025.1.1,59.9726045,2025-10-02 09h00.31.495488 +0530
150,v,41,1,10,v,1,0.3881385,None,10,1,41,1,,,,,97.0231971,,97.0078327,97.0231971,98.0066996,98.0066996,98.0066996,98.0066996,98.0233122,99.006693,99.006693,99.4073471,v,1,0.3881385,None,,,,,F3,1,2025-10-02_08h59.55.562,Motor sequence,,2025.1.1,59.9726045,2025-10-02 09h00.31.495488 +0530
50,c,42,2,10,c,1,0.484453,None,10,2,42,2,,,,,99.4232531,,99.4077982,99.4232531,100.4067118,100.4067118,100.4067118,100.4067118,100.4231332,101.4064588,101.4064588,101.907216,c,1,0.484453,None,,,,,F3,1,2025-10-02_08h59.55.562,Motor sequence,,2025.1.1,59.9726045,2025-10-02 09h00.31.495488 +0530
-150,z,43,3,10,z,1,0.3522192,None,10,3,43,3,,,,,101.9229633,,101.9076667,101.9229633,102.9230518,102.9230518,102.9230518,102.9230518,102.9230518,103.9064769,103.9064769,104.2737283,z,1,0.3522192,None,,,,,F3,1,2025-10-02_08h59.55.562,Motor sequence,,2025.1.1,59.9726045,2025-10-02 09h00.31.495488 +0530
-50,x,44,0,11,x,1,0.3791518,None,11,0,44,0,,,,,104.2894628,,104.2742788,104.2894628,105.2895753,105.2895753,105.2895753,105.2895753,105.2895753,106.2730524,106.2730524,106.6566795,x,1,0.3791518,None,,,,,F3,1,2025-10-02_08h59.55.562,Motor sequence,,2025.1.1,59.9726045,2025-10-02 09h00.31.495488 +0530
150,v,45,1,11,v,1,0.3330287,None,11,1,45,1,,,,,106.6727321,,106.6571247,106.6727321,107.656053,107.656053,107.656053,107.656053,107.6726929,108.6561309,108.6561309,108.9899216,v,1,0.3330287,None,,,,,F3,1,2025-10-02_08h59.55.562,Motor sequence,,2025.1.1,59.9726045,2025-10-02 09h00.31.495488 +0530
50,c,46,2,11,c,1,0.5577844,None,11,2,46,2,,,,,109.0061724,,108.9903765,109.0061724,109.9893677,109.9893677,109.9893677,109.9893677,110.0062524,110.989278,110.989278,111.5565721,c,1,0.5577844,None,,,,,F3,1,2025-10-02_08h59.55.562,Motor sequence,,2025.1.1,59.9726045,2025-10-02 09h00.31.495488 +0530
-150,z,47,3,11,z,1,0.4991927,None,11,3,47,3,,,,,111.5725519,,111.5570156,111.5725519,112.5559687,112.5559687,112.5559687,112.5559687,112.5722867,113.5559625,113.5559625,114.0564218,z,1,0.4991927,None,,,,,F3,1,2025-10-02_08h59.55.562,Motor sequence,,2025.1.1,59.9726045,2025-10-02 09h00.31.495488 +0530
-50,x,48,0,12,x,1,0.343673,None,12,0,48,0,,,,,114.0723846,,114.0568783,114.0723846,115.055556,115.055556,115.055556,115.055556,115.0723102,116.0557012,116.0557012,116.4060848,x,1,0.343673,None,,,,,F3,1,2025-10-02_08h59.55.562,Motor sequence,,2025.1.1,59.9726045,2025-10-02 09h00.31.495488 +0530
150,v,49,1,12,v,1,0.430334,None,12,1,49,1,,,,,116.4223927,,116.4065282,116.4223927,117.4054119,117.4054119,117.4054119,117.4054119,117.4220335,118.4056167,118.4056167,118.8395163,v,1,0.430334,None,,,,,F3,1,2025-10-02_08h59.55.562,Motor sequence,,2025.1.1,59.9726045,2025-10-02 09h00.31.495488 +0530
50,c,50,2,12,c,1,0.2750103,None,12,2,50,2,,,,,118.8556119,,118.8398856,118.8556119,119.8388241,119.8388241,119.8388241,119.8388241,119.8553196,120.8386017,120.8386017,121.1226765,c,1,0.2750103,None,,,,,F3,1,2025-10-02_08h59.55.562,Motor sequence,,2025.1.1,59.9726045,2025-10-02 09h00.31.495488 +0530
-150,z,51,3,12,z,1,0.2947001,None,12,3,51,3,,,,,121.1387633,,121.123125,121.1387633,122.1218548,122.1218548,122.1218548,122.1218548,122.1384694,123.1219388,123.1219388,123.4220224,z,1,0.2947001,None,,,,,F3,1,2025-10-02_08h59.55.562,Motor sequence,,2025.1.1,59.9726045,2025-10-02 09h00.31.495488 +0530
-50,x,52,0,13,x,1,0.2927211,None,13,0,52,0,,,,,123.4381846,,123.4222248,123.4381846,124.4215732,124.4215732,124.4215732,124.4215732,124.4383597,125.4215407,125.4215407,125.7226799,x,1,0.2927211,None,,,,,F3,1,2025-10-02_08h59.55.562,Motor sequence,,2025.1.1,59.9726045,2025-10-02 09h00.31.495488 +0530
150,v,53,1,13,v,1,0.3134358,None,13,1,53,1,,,,,125.7382592,,125.7232877,125.7382592,126.7216573,126.7216573,126.7216573,126.7216573,126.7383647,127.7384052,127.7384052,128.0556272,v,1,0.3134358,None,,,,,F3,1,2025-10-02_08h59.55.562,Motor sequence,,2025.1.1,59.9726045,2025-10-02 09h00.31.495488 +0530
50,c,54,2,13,c,1,0.0692023,None,13,2,54,2,,,,,128.0714731,,128.0560795,128.0714731,129.05499,129.05499,129.05499,129.05499,129.0714659,130.0546787,130.0546787,130.1386101,c,1,0.0692023,None,,,,,F3,1,2025-10-02_08h59.55.562,Motor sequence,,2025.1.1,59.9726045,2025-10-02 09h00.31.495488 +0530
-150,z,55,3,13,z,1,0.2336698,None,13,3,55,3,,,,,130.154897,,130.1390638,130.154897,131.1381891,131.1381891,131.1381891,131.1381891,131.154579,132.138158,132.138158,132.388653,z,1,0.2336698,None,,,,,F3,1,2025-10-02_08h59.55.562,Motor sequence,,2025.1.1,59.9726045,2025-10-02 09h00.31.495488 +0530
-50,x,56,0,14,x,1,0.2664796,None,14,0,56,0,,,,,132.4047271,,132.3890902,132.4047271,133.3881992,133.3881992,133.3881992,133.3881992,133.4044746,134.3878751,134.3878751,134.6550647,x,1,0.2664796,None,,,,,F3,1,2025-10-02_08h59.55.562,Motor sequence,,2025.1.1,59.9726045,2025-10-02 09h00.31.495488 +0530
150,v,57,1,14,v,1,0.3135144,None,14,1,57,1,,,,,134.6710631,,134.6555244,134.6710631,135.6544707,135.6544707,135.6544707,135.6544707,135.6711586,136.654346,136.654346,136.9715828,v,1,0.3135144,None,,,,,F3,1,2025-10-02_08h59.55.562,Motor sequence,,2025.1.1,59.9726045,2025-10-02 09h00.31.495488 +0530
50,c,58,2,14,c,1,0.268717,None,14,2,58,2,,,,,136.987543,,136.972036,136.987543,137.9711854,137.9711854,137.9711854,137.9711854,137.9877432,138.9709482,138.9709482,139.2546849,c,1,0.268717,None,,,,,F3,1,2025-10-02_08h59.55.562,Motor sequence,,2025.1.1,59.9726045,2025-10-02 09h00.31.495488 +0530
-150,z,59,3,14,z,1,0.2782184,None,14,3,59,3,,,,,139.2709034,,139.2551324,139.2709034,140.2542795,140.2542795,140.2542795,140.2542795,140.2707137,141.2542777,141.2542777,141.537931,z,1,0.2782184,None,,,,,F3,1,2025-10-02_08h59.55.562,Motor sequence,,2025.1.1,59.9726045,2025-10-02 09h00.31.495488 +0530
-50,x,60,0,15,x,1,0.302743,None,15,0,60,0,,,,,141.5540332,,141.5383852,141.5540332,142.5376415,142.5376415,142.5376415,142.5376415,142.5541256,143.5374093,143.5374093,143.854803,x,1,0.302743,None,,,,,F3,1,2025-10-02_08h59.55.562,Motor sequence,,2025.1.1,59.9726045,2025-10-02 09h00.31.495488 +0530
150,v,61,1,15,v,1,0.5086955,None,15,1,61,1,,,,,143.8706709,,143.8552597,143.8706709,144.8541263,144.8541263,144.8541263,144.8541263,144.8703192,145.8701774,145.8701774,146.3879424,v,1,0.5086955,None,,,,,F3,1,2025-10-02_08h59.55.562,Motor sequence,,2025.1.1,59.9726045,2025-10-02 09h00.31.495488 +0530
50,c,62,2,15,c,1,0.4035711,None,15,2,62,2,,,,,146.4038282,,146.3883851,146.4038282,147.4036248,147.4036248,147.4036248,147.4036248,147.4036248,148.3871893,148.3871893,148.8037854,c,1,0.4035711,None,,,,,F3,1,2025-10-02_08h59.55.562,Motor sequence,,2025.1.1,59.9726045,2025-10-02 09h00.31.495488 +0530
-150,z,63,3,15,z,1,0.3552463,None,15,3,63,3,,,,,148.8201753,,148.8039753,148.8201753,149.8036599,149.8036599,149.8036599,149.8036599,149.8200692,150.8037271,150.8037271,151.1705858,z,1,0.3552463,None,,,,,F3,1,2025-10-02_08h59.55.562,Motor sequence,,2025.1.1,59.9726045,2025-10-02 09h00.31.495488 +0530
-50,x,64,0,16,x,1,0.3122404,None,16,0,64,0,,,,,151.1869269,,151.1710366,151.1869269,152.1701739,152.1701739,152.1701739,152.1701739,152.1869188,153.1701395,153.1701395,153.4870345,x,1,0.3122404,None,,,,,F3,1,2025-10-02_08h59.55.562,Motor sequence,,2025.1.1,59.9726045,2025-10-02 09h00.31.495488 +0530
150,v,65,1,16,v,1,0.5433433,None,16,1,65,1,,,,,153.5034335,,153.4874951,153.5034335,154.4867492,154.4867492,154.4867492,154.4867492,154.5033814,155.4864497,155.4864497,156.0369304,v,1,0.5433433,None,,,,,F3,1,2025-10-02_08h59.55.562,Motor sequence,,2025.1.1,59.9726045,2025-10-02 09h00.31.495488 +0530
50,c,66,2,16,c,1,0.3156887,None,16,2,66,2,,,,,156.0532615,,156.0373763,156.0532615,157.0363606,157.0363606,157.0363606,157.0363606,157.053057,158.0365719,158.0365719,158.3535736,c,1,0.3156887,None,,,,,F3,1,2025-10-02_08h59.55.562,Motor sequence,,2025.1.1,59.9726045,2025-10-02 09h00.31.495488 +0530
-150,z,67,3,16,z,1,0.2873527,None,16,3,67,3,,,,,158.3695361,,158.354018,158.3695361,159.3528773,159.3528773,159.3528773,159.3528773,159.3696679,160.3526499,160.3526499,160.6530127,z,1,0.2873527,None,,,,,F3,1,2025-10-02_08h59.55.562,Motor sequence,,2025.1.1,59.9726045,2025-10-02 09h00.31.495488 +0530
-50,x,68,0,17,x,1,0.2610158,None,17,0,68,0,,,,,160.6691991,,160.6532355,160.6691991,161.6529148,161.6529148,161.6529148,161.6529148,161.6696233,162.6528613,162.6528613,162.9199279,x,1,0.2610158,None,,,,,F3,1,2025-10-02_08h59.55.562,Motor sequence,,2025.1.1,59.9726045,2025-10-02 09h00.31.495488 +0530
150,v,69,1,17,v,1,0.2863571,None,17,1,69,1,,,,,162.9360742,,162.9203806,162.9360742,163.9194178,163.9194178,163.9194178,163.9194178,163.9363684,164.9191248,164.9191248,165.220059,v,1,0.2863571,None,,,,,F3,1,2025-10-02_08h59.55.562,Motor sequence,,2025.1.1,59.9726045,2025-10-02 09h00.31.495488 +0530
50,c,70,2,17,c,1,0.3023175,None,17,2,70,2,,,,,165.2360611,,165.2205023,165.2360611,166.2191703,166.2191703,166.2191703,166.2191703,166.2360355,167.2358272,167.2358272,167.5532058,c,1,0.3023175,None,,,,,F3,1,2025-10-02_08h59.55.562,Motor sequence,,2025.1.1,59.9726045,2025-10-02 09h00.31.495488 +0530
-150,z,71,3,17,z,1,0.3019669,None,17,3,71,3,,,,,167.5691172,,167.5536517,167.5691172,168.5523541,168.5523541,168.5523541,168.5523541,168.5688625,169.568924,169.568924,169.8862614,z,1,0.3019669,None,,,,,F3,1,2025-10-02_08h59.55.562,Motor sequence,,2025.1.1,59.9726045,2025-10-02 09h00.31.495488 +0530
-50,x,72,0,18,x,1,0.2138844,None,18,0,72,0,,,,,169.9019132,,169.8867215,169.9019132,170.8856639,170.8856639,170.8856639,170.8856639,170.9020853,171.8855441,171.8855441,172.1031719,x,1,0.2138844,None,,,,,F3,1,2025-10-02_08h59.55.562,Motor sequence,,2025.1.1,59.9726045,2025-10-02 09h00.31.495488 +0530
150,v,73,1,18,v,1,0.3185292,None,18,1,73,1,,,,,172.1188084,,172.1036226,172.1188084,173.1186191,173.1186191,173.1186191,173.1186191,173.1186191,174.1186289,174.1186289,174.452621,v,1,0.3185292,None,,,,,F3,1,2025-10-02_08h59.55.562,Motor sequence,,2025.1.1,59.9726045,2025-10-02 09h00.31.495488 +0530
50,c,74,2,18,c,1,0.2874843,None,18,2,74,2,,,,,174.468744,,174.4530645,174.468744,175.4520735,175.4520735,175.4520735,175.4520735,175.46875,176.4520957,176.4520957,176.7525508,c,1,0.2874843,None,,,,,F3,1,2025-10-02_08h59.55.562,Motor sequence,,2025.1.1,59.9726045,2025-10-02 09h00.31.495488 +0530
-150,z,75,3,18,z,1,0.2604858,None,18,3,75,3,,,,,176.7686543,,176.7529877,176.7686543,177.7519435,177.7519435,177.7519435,177.7519435,177.7685133,178.7517099,178.7517099,179.0191305,z,1,0.2604858,None,,,,,F3,1,2025-10-02_08h59.55.562,Motor sequence,,2025.1.1,59.9726045,2025-10-02 09h00.31.495488 +0530
-50,x,76,0,19,x,1,0.2655391,None,19,0,76,0,,,,,179.0352239,,179.0195819,179.0352239,180.0181686,180.0181686,180.0181686,180.0181686,180.0352121,181.0184268,181.0184268,181.2855213,x,1,0.2655391,None,,,,,F3,1,2025-10-02_08h59.55.562,Motor sequence,,2025.1.1,59.9726045,2025-10-02 09h00.31.495488 +0530
150,v,77,1,19,v,1,0.2627602,None,19,1,77,1,,,,,181.3017794,,181.2859742,181.3017794,182.2850041,182.2850041,182.2850041,182.2850041,182.3016933,183.2847899,183.2847899,183.5520054,v,1,0.2627602,None,,,,,F3,1,2025-10-02_08h59.55.562,Motor sequence,,2025.1.1,59.9726045,2025-10-02 09h00.31.495488 +0530
50,c,78,2,19,c,1,0.3434735,None,19,2,78,2,,,,,183.5682616,,183.5524757,183.5682616,184.5515101,184.5515101,184.5515101,184.5515101,184.5680997,185.5513704,185.5513704,185.902134,c,1,0.3434735,None,,,,,F3,1,2025-10-02_08h59.55.562,Motor sequence,,2025.1.1,59.9726045,2025-10-02 09h00.31.495488 +0530
-150,z,79,3,19,z,1,0.3113658,None,19,3,79,3,,,,,185.9178452,,185.9025935,185.9178452,186.9014772,186.9014772,186.9014772,186.9014772,186.9180915,187.9015798,187.9015798,188.2185645,z,1,0.3113658,None,,,,,F3,1,2025-10-02_08h59.55.562,Motor sequence,,2025.1.1,59.9726045,2025-10-02 09h00.31.495488 +0530
-50,x,80,0,20,x,1,0.2810975,None,20,0,80,0,,,,,188.2344938,,188.2190751,188.2344938,189.2178488,189.2178488,189.2178488,189.2178488,189.234456,190.2343608,190.2343608,190.5178778,x,1,0.2810975,None,,,,,F3,1,2025-10-02_08h59.55.562,Motor sequence,,2025.1.1,59.9726045,2025-10-02 09h00.31.495488 +0530
150,v,81,1,20,v,1,0.2344969,None,20,1,81,1,,,,,190.5341823,,190.5180875,190.5341823,191.5171672,191.5171672,191.5171672,191.5171672,191.5339009,192.5176113,192.5176113,192.7675619,v,1,0.2344969,None,,,,,F3,1,2025-10-02_08h59.55.562,Motor sequence,,2025.1.1,59.9726045,2025-10-02 09h00.31.495488 +0530
50,c,82,2,20,c,1,0.2882781,None,20,2,82,2,,,,,192.7839345,,192.7677735,192.7839345,193.7671762,193.7671762,193.7671762,193.7671762,193.7839255,194.7675991,194.7675991,195.0680276,c,1,0.2882781,None,,,,,F3,1,2025-10-02_08h59.55.562,Motor sequence,,2025.1.1,59.9726045,2025-10-02 09h00.31.495488 +0530
-150,z,83,3,20,z,1,0.2908267,None,20,3,83,3,,,,,195.0841735,,195.068521,195.0841735,196.0670909,196.0670909,196.0670909,196.0670909,196.0837939,197.0673795,197.0673795,197.3679687,z,1,0.2908267,None,,,,,F3,1,2025-10-02_08h59.55.562,Motor sequence,,2025.1.1,59.9726045,2025-10-02 09h00.31.495488 +0530
-50,x,84,0,21,x,1,0.313503,None,21,0,84,0,,,,,197.3842691,,197.3684133,197.3842691,198.3671709,198.3671709,198.3671709,198.3671709,198.3840649,199.3673068,199.3673068,199.68447,x,1,0.313503,None,,,,,F3,1,2025-10-02_08h59.55.562,Motor sequence,,2025.1.1,59.9726045,2025-10-02 09h00.31.495488 +0530
150,v,85,1,21,v,1,0.3041968,None,21,1,85,1,,,,,199.7004684,,199.6849198,199.7004684,200.6837681,200.6837681,200.6837681,200.6837681,200.7006431,201.6838615,201.6838615,202.0008052,v,1,0.3041968,None,,,,,F3,1,2025-10-02_08h59.55.562,Motor sequence,,2025.1.1,59.9726045,2025-10-02 09h00.31.495488 +0530
50,c,86,2,21,c,1,0.3106648,None,21,2,86,2,,,,,202.0168399,,202.0012092,202.0168399,202.9998894,202.9998894,202.9998894,202.9998894,203.0165623,203.9998949,203.9998949,204.3169622,c,1,0.3106648,None,,,,,F3,1,2025-10-02_08h59.55.562,Motor sequence,,2025.1.1,59.9726045,2025-10-02 09h00.31.495488 +0530
-150,z,87,3,21,z,1,0.3268948,None,21,3,87,3,,,,,204.3332224,,204.3172962,204.3332224,205.3163013,205.3163013,205.3163013,205.3163013,205.3332858,206.316599,206.316599,206.6502063,z,1,0.3268948,None,,,,,F3,1,2025-10-02_08h59.55.562,Motor sequence,,2025.1.1,59.9726045,2025-10-02 09h00.31.495488 +0530
-50,x,88,0,22,x,1,0.3514306,None,22,0,88,0,,,,,206.6664061,,206.6504029,206.6664061,207.6500417,207.6500417,207.6500417,207.6500417,207.6665414,208.649745,208.649745,209.0166353,x,1,0.3514306,None,,,,,F3,1,2025-10-02_08h59.55.562,Motor sequence,,2025.1.1,59.9726045,2025-10-02 09h00.31.495488 +0530
150,v,89,1,22,v,1,0.3328615,None,22,1,89,1,,,,,209.033074,,209.0168519,209.033074,210.0162722,210.0162722,210.0162722,210.0162722,210.0330913,211.0161814,211.0161814,211.3501696,v,1,0.3328615,None,,,,,F3,1,2025-10-02_08h59.55.562,Motor sequence,,2025.1.1,59.9726045,2025-10-02 09h00.31.495488 +0530
50,c,90,2,22,c,1,0.2771323,None,22,2,90,2,,,,,211.3664455,,211.3504839,211.3664455,212.349937,212.349937,212.349937,212.349937,212.3665396,213.3499092,213.3499092,213.6336758,c,1,0.2771323,None,,,,,F3,1,2025-10-02_08h59.55.562,Motor sequence,,2025.1.1,59.9726045,2025-10-02 09h00.31.495488 +0530
-150,z,91,3,22,z,1,0.3951925,None,22,3,91,3,,,,,213.6496297,,213.6341252,213.6496297,214.6493989,214.6493989,214.6493989,214.6493989,214.6493989,215.6493206,215.6493206,216.0498138,z,1,0.3951925,None,,,,,F3,1,2025-10-02_08h59.55.562,Motor sequence,,2025.1.1,59.9726045,2025-10-02 09h00.31.495488 +0530
-50,x,92,0,23,x,1,0.3124841,None,23,0,92,0,,,,,216.0658933,,216.050031,216.0658933,217.0492024,217.0492024,217.0492024,217.0492024,217.0657589,218.0491963,218.0491963,218.3661361,x,1,0.3124841,None,,,,,F3,1,2025-10-02_08h59.55.562,Motor sequence,,2025.1.1,59.9726045,2025-10-02 09h00.31.495488 +0530
150,v,93,1,23,v,1,0.243885,None,23,1,93,1,,,,,218.3826543,,218.3663239,218.3826543,219.3662232,219.3662232,219.3662232,219.3662232,219.3825843,220.3658538,220.3658538,220.6164622,v,1,0.243885,None,,,,,F3,1,2025-10-02_08h59.55.562,Motor sequence,,2025.1.1,59.9726045,2025-10-02 09h00.31.495488 +0530
50,c,94,2,23,c,1,0.2665216,None,23,2,94,2,,,,,220.6327434,,220.616919,220.6327434,221.6158476,221.6158476,221.6158476,221.6158476,221.6326625,222.6158719,222.6158719,222.8830679,c,1,0.2665216,None,,,,,F3,1,2025-10-02_08h59.55.562,Motor sequence,,2025.1.1,59.9726045,2025-10-02 09h00.31.495488 +0530
-150,z,95,3,23,z,1,0.3471445,None,23,3,95,3,,,,,222.8989274,,222.8835099,222.8989274,223.8824493,223.8824493,223.8824493,223.8824493,223.899116,224.8824603,224.8824603,225.2327541,z,1,0.3471445,None,,,,,F3,1,2025-10-02_08h59.55.562,Motor sequence,,2025.1.1,59.9726045,2025-10-02 09h00.31.495488 +0530
-50,x,96,0,24,x,1,0.3066241,None,24,0,96,0,,,,,225.248898,,225.2332027,225.248898,226.2323756,226.2323756,226.2323756,226.2323756,226.2491298,227.2323915,227.2323915,227.5494815,x,1,0.3066241,None,,,,,F3,1,2025-10-02_08h59.55.562,Motor sequence,,2025.1.1,59.9726045,2025-10-02 09h00.31.495488 +0530
150,v,97,1,24,v,1,0.4015787,None,24,1,97,1,,,,,227.5654074,,227.5499799,227.5654074,228.5489002,228.5489002,228.5489002,228.5489002,228.5655624,229.5488563,229.5488563,229.9658021,v,1,0.4015787,None,,,,,F3,1,2025-10-02_08h59.55.562,Motor sequence,,2025.1.1,59.9726045,2025-10-02 09h00.31.495488 +0530
50,c,98,2,24,c,1,0.2527825,None,24,2,98,2,,,,,229.9822097,,229.9662374,229.9822097,230.9654092,230.9654092,230.9654092,230.9654092,230.982204,231.9650713,231.9650713,232.2324859,c,1,0.2527825,None,,,,,F3,1,2025-10-02_08h59.55.562,Motor sequence,,2025.1.1,59.9726045,2025-10-02 09h00.31.495488 +0530
-150,z,99,3,24,z,1,0.2645599,None,24,3,99,3,,,,,232.2486443,,232.2330037,232.2486443,233.2319984,233.2319984,233.2319984,233.2319984,233.2486471,234.2319663,234.2319663,234.4989189,z,1,0.2645599,None,,,,,F3,1,2025-10-02_08h59.55.562,Motor sequence,,2025.1.1,59.9726045,2025-10-02 09h00.31.495488 +0530
-150,z,0,0,0,z,1,0.9910775,None,,,,,0,0,0,3,234.5256578,,234.5202843,234.5256578,235.4984797,235.4984797,235.4984797,235.4984797,235.5317299,236.4984708,236.4984708,237.4988481,,,,,z,1,0.9910775,None,F3,1,2025-10-02_08h59.55.562,Motor sequence,,2025.1.1,59.9726045,2025-10-02 09h00.31.495488 +0530
-50,x,1,1,0,x,1,1.1494627,None,,,,,0,1,1,0,237.514938,,237.4993517,237.514938,238.4980987,238.4980987,238.4980987,238.4980987,238.5150142,239.4981801,239.4981801,240.6486399,,,,,x,1,1.1494627,None,F3,1,2025-10-02_08h59.55.562,Motor sequence,,2025.1.1,59.9726045,2025-10-02 09h00.31.495488 +0530
50,c,2,2,0,c,1,0.6585394,None,,,,,0,2,2,2,240.6643612,,240.6490952,240.6643612,241.6480197,241.6480197,241.6480197,241.6480197,241.6645633,242.6480857,242.6480857,243.3152211,,,,,c,1,0.6585394,None,F3,1,2025-10-02_08h59.55.562,Motor sequence,,2025.1.1,59.9726045,2025-10-02 09h00.31.495488 +0530
50,c,3,3,1,c,1,0.8095138,None,,,,,1,3,3,2,243.3313558,,243.3156692,243.3313558,244.314424,244.314424,244.314424,244.314424,244.3312194,245.3145249,245.3145249,246.1316911,,,,,c,1,0.8095138,None,F3,1,2025-10-02_08h59.55.562,Motor sequence,,2025.1.1,59.9726045,2025-10-02 09h00.31.495488 +0530
-150,z,4,4,1,z,1,0.8720496,None,,,,,1,4,4,3,246.1477019,,246.1322242,246.1477019,247.1307618,247.1307618,247.1307618,247.1307618,247.1477187,248.1309755,248.1309755,249.0147442,,,,,z,1,0.8720496,None,F3,1,2025-10-02_08h59.55.562,Motor sequence,,2025.1.1,59.9726045,2025-10-02 09h00.31.495488 +0530
150,v,5,5,0,v,1,0.447108,None,,,,,0,5,5,1,249.0307305,,249.0152185,249.0307305,250.0140959,250.0140959,250.0140959,250.0140959,250.0310108,251.0139499,251.0139499,251.4648251,,,,,v,1,0.447108,None,F3,1,2025-10-02_08h59.55.562,Motor sequence,,2025.1.1,59.9726045,2025-10-02 09h00.31.495488 +0530
150,v,6,6,1,v,1,0.4728161,None,,,,,1,6,6,1,251.4805929,,251.4652946,251.4805929,252.4637598,252.4637598,252.4637598,252.4637598,252.4805236,253.4807813,253.4807813,253.9642867,,,,,v,1,0.4728161,None,F3,1,2025-10-02_08h59.55.562,Motor sequence,,2025.1.1,59.9726045,2025-10-02 09h00.31.495488 +0530
-150,z,7,7,2,z,1,0.5122082,None,,,,,2,7,7,3,253.9805457,,253.9647475,253.9805457,254.963745,254.963745,254.963745,254.963745,254.9806721,255.9639061,255.9639061,256.4809738,,,,,z,1,0.5122082,None,F3,1,2025-10-02_08h59.55.562,Motor sequence,,2025.1.1,59.9726045,2025-10-02 09h00.31.495488 +0530
50,c,8,8,2,c,1,0.618393,None,,,,,2,8,8,2,256.4968944,,256.4814358,256.4968944,257.4801758,257.4801758,257.4801758,257.4801758,257.4970172,258.480273,258.480273,259.1139548,,,,,c,1,0.618393,None,F3,1,2025-10-02_08h59.55.562,Motor sequence,,2025.1.1,59.9726045,2025-10-02 09h00.31.495488 +0530
150,v,9,9,2,v,1,0.558222,None,,,,,2,9,9,1,259.130219,,259.1143167,259.130219,260.113452,260.113452,260.113452,260.113452,260.1299116,261.1134968,261.1134968,261.6808676,,,,,v,1,0.558222,None,F3,1,2025-10-02_08h59.55.562,Motor sequence,,2025.1.1,59.9726045,2025-10-02 09h00.31.495488 +0530
150,v,10,10,3,v,1,0.4195352,None,,,,,3,10,10,1,261.6967017,,261.6813643,261.6967017,262.696871,262.696871,262.696871,262.696871,262.696871,263.6799618,263.6799618,264.1139783,,,,,v,1,0.4195352,None,F3,1,2025-10-02_08h59.55.562,Motor sequence,,2025.1.1,59.9726045,2025-10-02 09h00.31.495488 +0530
-50,x,11,11,1,x,1,0.6981727,None,,,,,1,11,11,0,264.1299883,,264.1144905,264.1299883,265.1295134,265.1295134,265.1295134,265.1295134,265.1295134,266.1294293,266.1294293,266.8303111,,,,,x,1,0.6981727,None,F3,1,2025-10-02_08h59.55.562,Motor sequence,,2025.1.1,59.9726045,2025-10-02 09h00.31.495488 +0530
50,c,12,12,3,c,1,0.5958606,None,,,,,3,12,12,2,266.8464842,,266.8308261,266.8464842,267.8297784,267.8297784,267.8297784,267.8297784,267.8465774,268.8297959,268.8297959,269.4300956,,,,,c,1,0.5958606,None,F3,1,2025-10-02_08h59.55.562,Motor sequence,,2025.1.1,59.9726045,2025-10-02 09h00.31.495488 +0530
-150,z,13,13,3,z,1,0.7047481,None,,,,,3,13,13,3,269.4464336,,269.4305562,269.4464336,270.4295721,270.4295721,270.4295721,270.4295721,270.4463997,271.4296703,271.4296703,272.1469685,,,,,z,1,0.7047481,None,F3,1,2025-10-02_08h59.55.562,Motor sequence,,2025.1.1,59.9726045,2025-10-02 09h00.31.495488 +0530
150,v,14,14,4,v,1,0.6446035,None,,,,,4,14,14,1,272.1627079,,272.1474787,272.1627079,273.1461247,273.1461247,273.1461247,273.1461247,273.1625634,274.162656,274.162656,274.8132511,,,,,v,1,0.6446035,None,F3,1,2025-10-02_08h59.55.562,Motor sequence,,2025.1.1,59.9726045,2025-10-02 09h00.31.495488 +0530
-50,x,15,15,2,x,1,0.7981557,None,,,,,2,15,15,0,274.8294413,,274.8137182,274.8294413,275.8127003,275.8127003,275.8127003,275.8127003,275.8294137,276.8126376,276.8126376,277.6133969,,,,,x,1,0.7981557,None,F3,1,2025-10-02_08h59.55.562,Motor sequence,,2025.1.1,59.9726045,2025-10-02 09h00.31.495488 +0530
150,v,16,16,5,v,1,0.5008312,None,,,,,5,16,16,1,277.6290552,,277.6138439,277.6290552,278.612572,278.612572,278.612572,278.612572,278.6289921,279.6122195,279.6122195,280.1294612,,,,,v,1,0.5008312,None,F3,1,2025-10-02_08h59.55.562,Motor sequence,,2025.1.1,59.9726045,2025-10-02 09h00.31.495488 +0530
-50,x,17,17,3,x,1,0.5819655,None,,,,,3,17,17,0,280.1458609,,280.12997,280.1458609,281.1289549,281.1289549,281.1289549,281.1289549,281.1454771,282.1290082,282.1290082,282.7128643,,,,,x,1,0.5819655,None,F3,1,2025-10-02_08h59.55.562,Motor sequence,,2025.1.1,59.9726045,2025-10-02 09h00.31.495488 +0530
-150,z,18,18,4,z,1,0.5166949,None,,,,,4,18,18,3,282.7289355,,282.7133659,282.7289355,283.7123628,283.7123628,283.7123628,283.7123628,283.7288538,284.7119779,284.7119779,285.2455157,,,,,z,1,0.5166949,None,F3,1,2025-10-02_08h59.55.562,Motor sequence,,2025.1.1,59.9726045,2025-10-02 09h00.31.495488 +0530
-50,x,19,19,4,x,1,1.2127481,None,,,,,4,19,19,0,285.2616454,,285.2457237,285.2616454,286.2455264,286.2455264,286.2455264,286.2455264,286.2618545,287.2453463,287.2453463,288.462228,,,,,x,1,1.2127481,None,F3,1,2025-10-02_08h59.55.562,Motor sequence,,2025.1.1,59.9726045,2025-10-02 09h00.31.495488 +0530
-50,x,20,20,5,x,1,0.7941812,None,,,,,5,20,20,0,288.4786357,,288.462674,288.4786357,289.4616037,289.4616037,289.4616037,289.4616037,289.478401,290.4617995,290.4617995,291.2623999,,,,,x,1,0.7941812,None,F3,1,2025-10-02_08h59.55.562,Motor sequence,,2025.1.1,59.9726045,2025-10-02 09h00.31.495488 +0530
-150,z,21,21,5,z,1,0.8428109,None,,,,,5,21,21,3,291.2781492,,291.2628652,291.2781492,292.2616072,292.2616072,292.2616072,292.2616072,292.2781436,293.2614567,293.2614567,294.1120629,,,,,z,1,0.8428109,None,F3,1,2025-10-02_08h59.55.562,Motor sequence,,2025.1.1,59.9726045,2025-10-02 09h00.31.495488 +0530
50,c,22,22,4,c,1,1.0724755,None,,,,,4,22,22,2,294.1281956,,294.1126744,294.1281956,295.1115445,295.1115445,295.1115445,295.1115445,295.1283411,296.1111389,296.1111389,297.1953389,,,,,c,1,1.0724755,None,F3,1,2025-10-02_08h59.55.562,Motor sequence,,2025.1.1,59.9726045,2025-10-02 09h00.31.495488 +0530
-150,z,23,23,6,z,1,1.1211457,None,,,,,6,23,23,3,297.2111501,,297.1957965,297.2111501,298.1946086,298.1946086,298.1946086,298.1946086,298.2110537,299.2109399,299.2109399,300.3448964,,,,,z,1,1.1211457,None,F3,1,2025-10-02_08h59.55.562,Motor sequence,,2025.1.1,59.9726045,2025-10-02 09h00.31.495488 +0530
-150,z,24,24,7,z,1,0.810697,None,,,,,7,24,24,3,300.3612268,,300.3453499,300.3612268,301.344417,301.344417,301.344417,301.344417,301.3608673,302.3444846,302.3444846,303.1615818,,,,,z,1,0.810697,None,F3,1,2025-10-02_08h59.55.562,Motor sequence,,2025.1.1,59.9726045,2025-10-02 09h00.31.495488 +0530
50,c,25,25,5,c,1,0.977268,None,,,,,5,25,25,2,303.1774237,,303.1620635,303.1774237,304.1609635,304.1609635,304.1609635,304.1609635,304.1773714,305.1608037,305.1608037,306.1445721,,,,,c,1,0.977268,None,F3,1,2025-10-02_08h59.55.562,Motor sequence,,2025.1.1,59.9726045,2025-10-02 09h00.31.495488 +0530
150,v,26,26,6,v,1,1.0122279,None,,,,,6,26,26,1,306.1605573,,306.1451114,306.1605573,307.1439946,307.1439946,307.1439946,307.1439946,307.1608058,308.1440055,308.1440055,309.1609179,,,,,v,1,1.0122279,None,F3,1,2025-10-02_08h59.55.562,Motor sequence,,2025.1.1,59.9726045,2025-10-02 09h00.31.495488 +0530
-150,z,27,27,8,z,1,0.6339281,None,,,,,8,27,27,3,309.1771101,,309.16137,309.1771101,310.1606473,310.1606473,310.1606473,310.1606473,310.1771416,311.1606641,311.1606641,311.8106944,,,,,z,1,0.6339281,None,F3,1,2025-10-02_08h59.55.562,Motor sequence,,2025.1.1,59.9726045,2025-10-02 09h00.31.495488 +0530
-150,z,28,28,9,z,1,1.0927991,None,,,,,9,28,28,3,311.8270611,,311.8111504,311.8270611,312.8101914,312.8101914,312.8101914,312.8101914,312.8269393,313.8101851,313.8101851,314.9109181,,,,,z,1,1.0927991,None,F3,1,2025-10-02_08h59.55.562,Motor sequence,,2025.1.1,59.9726045,2025-10-02 09h00.31.495488 +0530
-150,z,29,29,10,z,1,1.3670342,None,,,,,10,29,29,3,314.9270369,,314.9113737,314.9270369,315.9101234,315.9101234,315.9101234,315.9101234,315.9268931,316.9100618,316.9100618,318.2941043,,,,,z,1,1.3670342,None,F3,1,2025-10-02_08h59.55.562,Motor sequence,,2025.1.1,59.9726045,2025-10-02 09h00.31.495488 +0530
-50,x,30,30,6,x,1,0.7369147,None,,,,,6,30,30,0,318.3100626,,318.2945594,318.3100626,319.2933496,319.2933496,319.2933496,319.2933496,319.3097662,320.2931801,320.2931801,321.0436573,,,,,x,1,0.7369147,None,F3,1,2025-10-02_08h59.55.562,Motor sequence,,2025.1.1,59.9726045,2025-10-02 09h00.31.495488 +0530
150,v,31,31,7,v,1,0.5910375,None,,,,,7,31,31,1,321.0599386,,321.0441644,321.0599386,322.0432577,322.0432577,322.0432577,322.0432577,322.059969,323.0429341,323.0429341,323.6436072,,,,,v,1,0.5910375,None,F3,1,2025-10-02_08h59.55.562,Motor sequence,,2025.1.1,59.9726045,2025-10-02 09h00.31.495488 +0530
50,c,32,32,6,c,1,1.2587887,None,,,,,6,32,32,2,323.6594971,,323.6440614,323.6594971,324.6431368,324.6431368,324.6431368,324.6431368,324.6594803,325.6428996,325.6428996,326.9101583,,,,,c,1,1.2587887,None,F3,1,2025-10-02_08h59.55.562,Motor sequence,,2025.1.1,59.9726045,2025-10-02 09h00.31.495488 +0530
50,c,33,33,7,c,1,0.9713368,None,,,,,7,33,33,2,326.9262233,,326.9106215,326.9262233,327.9091738,327.9091738,327.9091738,327.9091738,327.9261392,328.9093976,328.9093976,329.893415,,,,,c,1,0.9713368,None,F3,1,2025-10-02_08h59.55.562,Motor sequence,,2025.1.1,59.9726045,2025-10-02 09h00.31.495488 +0530
50,c,34,34,8,c,1,0.5212008,None,,,,,8,34,34,2,329.9093872,,329.8938875,329.9093872,330.8927351,330.8927351,330.8927351,330.8927351,330.9092196,331.8925515,331.8925515,332.4265408,,,,,c,1,0.5212008,None,F3,1,2025-10-02_08h59.55.562,Motor sequence,,2025.1.1,59.9726045,2025-10-02 09h00.31.495488 +0530
-150,z,35,35,11,z,1,0.7707971,None,,,,,11,35,35,3,332.4425982,,332.4269903,332.4425982,333.4422549,333.4422549,333.4422549,333.4422549,333.4422549,334.4257345,334.4257345,335.2095657,,,,,z,1,0.7707971,None,F3,1,2025-10-02_08h59.55.562,Motor sequence,,2025.1.1,59.9726045,2025-10-02 09h00.31.495488 +0530
50,c,36,36,9,c,1,0.8457731,None,,,,,9,36,36,2,335.2256501,,335.2100889,335.2256501,336.208788,336.208788,336.208788,336.208788,336.2255151,337.2088897,337.2088897,338.0591826,,,,,c,1,0.8457731,None,F3,1,2025-10-02_08h59.55.562,Motor sequence,,2025.1.1,59.9726045,2025-10-02 09h00.31.495488 +0530
50,c,37,37,10,c,1,0.6305885,None,,,,,10,37,37,2,338.0753926,,338.0596277,338.0753926,339.0588473,339.0588473,339.0588473,339.0588473,339.0752386,340.058611,340.058611,340.6928478,,,,,c,1,0.6305885,None,F3,1,2025-10-02_08h59.55.562,Motor sequence,,2025.1.1,59.9726045,2025-10-02 09h00.31.495488 +0530
-50,x,38,38,7,x,1,0.7489379,None,,,,,7,38,38,0,340.7084551,,340.69337,340.7084551,341.6917292,341.6917292,341.6917292,341.6917292,341.708465,342.6917854,342.6917854,343.4424221,,,,,x,1,0.7489379,None,F3,1,2025-10-02_08h59.55.562,Motor sequence,,2025.1.1,59.9726045,2025-10-02 09h00.31.495488 +0530
150,v,39,39,8,v,1,0.8521671,None,,,,,8,39,39,1,343.4584874,,343.4428809,343.4584874,344.4415936,344.4415936,344.4415936,344.4415936,344.458431,345.441952,345.441952,346.3087608,,,,,v,1,0.8521671,None,F3,1,2025-10-02_08h59.55.562,Motor sequence,,2025.1.1,59.9726045,2025-10-02 09h00.31.495488 +0530
-150,z,40,40,12,z,1,0.8898924,None,,,,,12,40,40,3,346.3250256,,346.3092386,346.3250256,347.3080118,347.3080118,347.3080118,347.3080118,347.3248456,348.3080098,348.3080098,349.2086582,,,,,z,1,0.8898924,None,F3,1,2025-10-02_08h59.55.562,Motor sequence,,2025.1.1,59.9726045,2025-10-02 09h00.31.495488 +0530
-50,x,41,41,8,x,1,0.7129959,None,,,,,8,41,41,0,349.2246925,,349.2091041,349.2246925,350.2081819,350.2081819,350.2081819,350.2081819,350.2246602,351.207823,351.207823,351.9251266,,,,,x,1,0.7129959,None,F3,1,2025-10-02_08h59.55.562,Motor sequence,,2025.1.1,59.9726045,2025-10-02 09h00.31.495488 +0530
-50,x,42,42,9,x,1,0.4534731,None,,,,,9,42,42,0,351.9414089,,351.9255832,351.9414089,352.9248728,352.9248728,352.9248728,352.9248728,352.9414033,353.924649,353.924649,354.3916578,,,,,x,1,0.4534731,None,F3,1,2025-10-02_08h59.55.562,Motor sequence,,2025.1.1,59.9726045,2025-10-02 09h00.31.495488 +0530
50,c,43,43,11,c,1,0.5497548,None,,,,,11,43,43,2,354.4077457,,354.3921206,354.4077457,355.3912205,355.3912205,355.3912205,355.3912205,355.4076482,356.3911934,356.3911934,356.9417206,,,,,c,1,0.5497548,None,F3,1,2025-10-02_08h59.55.562,Motor sequence,,2025.1.1,59.9726045,2025-10-02 09h00.31.495488 +0530
150,v,44,44,9,v,1,0.7245297,None,,,,,9,44,44,1,356.957563,,356.9421807,356.957563,357.9408784,357.9408784,357.9408784,357.9408784,357.9574109,358.9410364,358.9410364,359.6748047,,,,,v,1,0.7245297,None,F3,1,2025-10-02_08h59.55.562,Motor sequence,,2025.1.1,59.9726045,2025-10-02 09h00.31.495488 +0530
-150,z,45,45,13,z,1,0.5436866,None,,,,,13,45,45,3,359.6909899,,359.6753296,359.6909899,360.6742115,360.6742115,360.6742115,360.6742115,360.690784,361.6740542,361.6740542,362.224719,,,,,z,1,0.5436866,None,F3,1,2025-10-02_08h59.55.562,Motor sequence,,2025.1.1,59.9726045,2025-10-02 09h00.31.495488 +0530
150,v,46,46,10,v,1,0.4466384,None,,,,,10,46,46,1,362.2405448,,362.2251726,362.2405448,363.2239516,363.2239516,363.2239516,363.2239516,363.240537,364.2240487,364.2240487,364.6743383,,,,,v,1,0.4466384,None,F3,1,2025-10-02_08h59.55.562,Motor sequence,,2025.1.1,59.9726045,2025-10-02 09h00.31.495488 +0530
50,c,48,48,13,c,1,0.7172674,None,,,,,13,48,48,2,367.1404283,,367.1248149,367.1404283,368.1237947,368.1237947,368.1237947,368.1237947,368.1402245,369.1237511,369.1237511,369.8572664,,,,,c,1,0.7172674,None,F3,1,2025-10-02_08h59.55.562,Motor sequence,,2025.1.1,59.9726045,2025-10-02 09h00.31.495488 +0530
-150,z,49,49,14,z,1,0.7077549,None,,,,,14,49,49,3,369.8736085,,369.8577022,369.8736085,370.8566511,370.8566511,370.8566511,370.8566511,370.8734023,371.8565349,371.8565349,372.5740308,,,,,z,1,0.7077549,None,F3,1,2025-10-02_08h59.55.562,Motor sequence,,2025.1.1,59.9726045,2025-10-02 09h00.31.495488 +0530
-150,z,50,50,15,z,1,1.0347541,None,,,,,15,50,50,3,372.5900398,,372.5746014,372.5900398,373.5732184,373.5732184,373.5732184,373.5732184,373.5902333,374.5733918,374.5733918,375.6237927,,,,,z,1,1.0347541,None,F3,1,2025-10-02_08h59.55.562,Motor sequence,,2025.1.1,59.9726045,2025-10-02 09h00.31.495488 +0530
-150,z,51,51,16,z,1,0.5432269,None,,,,,16,51,51,3,375.6399563,,375.6242424,375.6399563,376.6233198,376.6233198,376.6233198,376.6233198,376.6398385,377.6230676,377.6230676,378.1736783,,,,,z,1,0.5432269,None,F3,1,2025-10-02_08h59.55.562,Motor sequence,,2025.1.1,59.9726045,2025-10-02 09h00.31.495488 +0530
50,c,52,52,14,c,1,1.6118522,None,,,,,14,52,52,2,378.1899029,,378.1741342,378.1899029,379.1730653,379.1730653,379.1730653,379.1730653,379.1894787,380.1731235,380.1731235,381.7900248,,,,,c,1,1.6118522,None,F3,1,2025-10-02_08h59.55.562,Motor sequence,,2025.1.1,59.9726045,2025-10-02 09h00.31.495488 +0530
-150,z,53,53,17,z,1,1.0402491,None,,,,,17,53,53,3,381.8061224,,381.7904603,381.8061224,382.7895636,382.7895636,382.7895636,382.7895636,382.8061883,383.7893416,383.7893416,384.8400174,,,,,z,1,1.0402491,None,F3,1,2025-10-02_08h59.55.562,Motor sequence,,2025.1.1,59.9726045,2025-10-02 09h00.31.495488 +0530
150,v,54,54,11,v,1,0.6137102,None,,,,,11,54,54,1,384.8558079,,384.8405315,384.8558079,385.8391377,385.8391377,385.8391377,385.8391377,385.8557164,386.8392195,386.8392195,387.4564512,,,,,v,1,0.6137102,None,F3,1,2025-10-02_08h59.55.562,Motor sequence,,2025.1.1,59.9726045,2025-10-02 09h00.31.495488 +0530
150,v,55,55,12,v,1,0.6551489,None,,,,,12,55,55,1,387.472405,,387.4569131,387.472405,388.4558348,388.4558348,388.4558348,388.4558348,388.4724096,389.4558422,389.4558422,390.1229282,,,,,v,1,0.6551489,None,F3,1,2025-10-02_08h59.55.562,Motor sequence,,2025.1.1,59.9726045,2025-10-02 09h00.31.495488 +0530
150,v,56,56,13,v,1,0.4307506,None,,,,,13,56,56,1,390.1391425,,390.1233927,390.1391425,391.1223094,391.1223094,391.1223094,391.1223094,391.1391272,392.1223228,392.1223228,392.5561467,,,,,v,1,0.4307506,None,F3,1,2025-10-02_08h59.55.562,Motor sequence,,2025.1.1,59.9726045,2025-10-02 09h00.31.495488 +0530
-150,z,57,57,18,z,1,0.7410643,None,,,,,18,57,57,3,392.5720691,,392.5566081,392.5720691,393.5554826,393.5554826,393.5554826,393.5554826,393.5719693,394.5552841,394.5552841,395.3060373,,,,,z,1,0.7410643,None,F3,1,2025-10-02_08h59.55.562,Motor sequence,,2025.1.1,59.9726045,2025-10-02 09h00.31.495488 +0530
-50,x,58,58,10,x,1,0.7581024,None,,,,,10,58,58,0,395.3219946,,395.306488,395.3219946,396.3051133,396.3051133,396.3051133,396.3051133,396.3220634,397.3220645,397.3220645,398.0889892,,,,,x,1,0.7581024,None,F3,1,2025-10-02_08h59.55.562,Motor sequence,,2025.1.1,59.9726045,2025-10-02 09h00.31.495488 +0530
-50,x,59,59,11,x,1,0.6759774,None,,,,,11,59,59,0,398.104997,,398.0894394,398.104997,399.0885594,399.0885594,399.0885594,399.0885594,399.1052243,400.0885482,400.0885482,400.7726195,,,,,x,1,0.6759774,None,F3,1,2025-10-02_08h59.55.562,Motor sequence,,2025.1.1,59.9726045,2025-10-02 09h00.31.495488 +0530
150,v,60,60,14,v,1,1.1281084,None,,,,,14,60,60,1,400.7884033,,400.7730885,400.7884033,401.7884262,401.7884262,401.7884262,401.7884262,401.7884262,402.7884004,402.7884004,403.9221392,,,,,v,1,1.1281084,None,F3,1,2025-10-02_08h59.55.562,Motor sequence,,2025.1.1,59.9726045,2025-10-02 09h00.31.495488 +0530
150,v,61,61,15,v,1,0.5479584,None,,,,,15,61,61,1,403.9381374,,403.9226117,403.9381374,404.921613,404.921613,404.921613,404.921613,404.9381165,405.9216589,405.9216589,406.4718007,,,,,v,1,0.5479584,None,F3,1,2025-10-02_08h59.55.562,Motor sequence,,2025.1.1,59.9726045,2025-10-02 09h00.31.495488 +0530
-50,x,62,62,12,x,1,0.5710487,None,,,,,12,62,62,0,406.4879621,,406.4722568,406.4879621,407.471218,407.471218,407.471218,407.471218,407.4878481,408.471271,408.471271,409.0544516,,,,,x,1,0.5710487,None,F3,1,2025-10-02_08h59.55.562,Motor sequence,,2025.1.1,59.9726045,2025-10-02 09h00.31.495488 +0530
50,c,63,63,15,c,1,0.9128363,None,,,,,15,63,63,2,409.0708029,,409.0546354,409.0708029,410.0542971,410.0542971,410.0542971,410.0542971,410.0712529,411.0544893,411.0544893,411.9714647,,,,,c,1,0.9128363,None,F3,1,2025-10-02_08h59.55.562,Motor sequence,,2025.1.1,59.9726045,2025-10-02 09h00.31.495488 +0530
150,v,64,64,16,v,1,0.4830409,None,,,,,16,64,64,1,411.9878674,,411.9719298,411.9878674,412.9708651,412.9708651,412.9708651,412.9708651,412.9877905,413.9707983,413.9707983,414.4547935,,,,,v,1,0.4830409,None,F3,1,2025-10-02_08h59.55.562,Motor sequence,,2025.1.1,59.9726045,2025-10-02 09h00.31.495488 +0530
150,v,65,65,17,v,1,0.5139444,None,,,,,17,65,65,1,414.4709873,,414.4552484,414.4709873,415.4542211,415.4542211,415.4542211,415.4542211,415.4708598,416.4540562,416.4540562,416.9715242,,,,,v,1,0.5139444,None,F3,1,2025-10-02_08h59.55.562,Motor sequence,,2025.1.1,59.9726045,2025-10-02 09h00.31.495488 +0530
50,c,66,66,16,c,1,0.6283602,None,,,,,16,66,66,2,416.9874961,,416.9719743,416.9874961,417.9872279,417.9872279,417.9872279,417.9872279,417.9872279,418.9874112,418.9874112,419.6210118,,,,,c,1,0.6283602,None,F3,1,2025-10-02_08h59.55.562,Motor sequence,,2025.1.1,59.9726045,2025-10-02 09h00.31.495488 +0530
50,c,67,67,17,c,1,0.4375418,None,,,,,17,67,67,2,419.6371164,,419.621458,419.6371164,420.6204802,420.6204802,420.6204802,420.6204802,420.637089,421.6205191,421.6205191,422.0708154,,,,,c,1,0.4375418,None,F3,1,2025-10-02_08h59.55.562,Motor sequence,,2025.1.1,59.9726045,2025-10-02 09h00.31.495488 +0530
150,v,68,68,18,v,1,0.4955861,None,,,,,18,68,68,1,422.0869603,,422.0712857,422.0869603,423.0702163,423.0702163,423.0702163,423.0702163,423.0869703,424.0702372,424.0702372,424.5707263,,,,,v,1,0.4955861,None,F3,1,2025-10-02_08h59.55.562,Motor sequence,,2025.1.1,59.9726045,2025-10-02 09h00.31.495488 +0530
-150,z,69,69,19,z,1,0.6986729,None,,,,,19,69,69,3,424.5870628,,424.5711769,424.5870628,425.5702943,425.5702943,425.5702943,425.5702943,425.5869664,426.5702403,426.5702403,427.270566,,,,,z,1,0.6986729,None,F3,1,2025-10-02_08h59.55.562,Motor sequence,,2025.1.1,59.9726045,2025-10-02 09h00.31.495488 +0530
50,c,70,70,18,c,1,0.6880504,None,,,,,18,70,70,2,427.2867301,,427.2710286,427.2867301,428.270045,428.270045,428.270045,428.270045,428.2868436,429.2700433,429.2700433,429.9705614,,,,,c,1,0.6880504,None,F3,1,2025-10-02_08h59.55.562,Motor sequence,,2025.1.1,59.9726045,2025-10-02 09h00.31.495488 +0530
50,c,71,71,19,c,1,0.6291974,None,,,,,19,71,71,2,429.9864786,,429.9710079,429.9864786,430.969918,430.969918,430.969918,430.969918,430.9865283,431.9866271,431.9866271,432.6202235,,,,,c,1,0.6291974,None,F3,1,2025-10-02_08h59.55.562,Motor sequence,,2025.1.1,59.9726045,2025-10-02 09h00.31.495488 +0530
-50,x,72,72,13,x,1,0.554047,None,,,,,13,72,72,0,432.6363921,,432.6206778,432.6363921,433.6197868,433.6197868,433.6197868,433.6197868,433.6363395,434.6195234,434.6195234,435.1869778,,,,,x,1,0.554047,None,F3,1,2025-10-02_08h59.55.562,Motor sequence,,2025.1.1,59.9726045,2025-10-02 09h00.31.495488 +0530
-50,x,73,73,14,x,1,0.4503902,None,,,,,14,73,73,0,435.2030038,,435.1874794,435.2030038,436.1863564,436.1863564,436.1863564,436.1863564,436.2026728,437.1864006,437.1864006,437.6532384,,,,,x,1,0.4503902,None,F3,1,2025-10-02_08h59.55.562,Motor sequence,,2025.1.1,59.9726045,2025-10-02 09h00.31.495488 +0530
-50,x,74,74,15,x,1,0.6419853,None,,,,,15,74,74,0,437.6695214,,437.65372,437.6695214,438.6526335,438.6526335,438.6526335,438.6526335,438.6694496,439.6527478,439.6527478,440.3032305,,,,,x,1,0.6419853,None,F3,1,2025-10-02_08h59.55.562,Motor sequence,,2025.1.1,59.9726045,2025-10-02 09h00.31.495488 +0530
-50,x,75,75,16,x,1,0.9916434,None,,,,,16,75,75,0,440.3191807,,440.3036899,440.3191807,441.3026289,441.3026289,441.3026289,441.3026289,441.3191573,442.3025656,442.3025656,443.3027345,,,,,x,1,0.9916434,None,F3,1,2025-10-02_08h59.55.562,Motor sequence,,2025.1.1,59.9726045,2025-10-02 09h00.31.495488 +0530
150,v,76,76,19,v,1,1.1547495,None,,,,,19,76,76,1,443.3190065,,443.3032039,443.3190065,444.302169,444.302169,444.302169,444.302169,444.3192178,445.3023324,445.3023324,446.4693784,,,,,v,1,1.1547495,None,F3,1,2025-10-02_08h59.55.562,Motor sequence,,2025.1.1,59.9726045,2025-10-02 09h00.31.495488 +0530
-150,z,77,77,20,z,1,0.4617559,None,,,,,20,77,77,3,446.4857332,,446.4698314,446.4857332,447.4689854,447.4689854,447.4689854,447.4689854,447.4854263,448.4688563,448.4688563,448.9364938,,,,,z,1,0.4617559,None,F3,1,2025-10-02_08h59.55.562,Motor sequence,,2025.1.1,59.9726045,2025-10-02 09h00.31.495488 +0530
50,c,78,78,20,c,1,0.7162022,None,,,,,20,78,78,2,448.9518775,,448.9369454,448.9518775,449.9521351,449.9521351,449.9521351,449.9521351,449.9521351,450.952056,450.952056,451.6694169,,,,,c,1,0.7162022,None,F3,1,2025-10-02_08h59.55.562,Motor sequence,,2025.1.1,59.9726045,2025-10-02 09h00.31.495488 +0530
-50,x,79,79,17,x,1,0.693575,None,,,,,17,79,79,0,451.6851552,,451.6699188,451.6851552,452.6851557,452.6851557,452.6851557,452.6851557,452.6851557,453.6683895,453.6683895,454.3689836,,,,,x,1,0.693575,None,F3,1,2025-10-02_08h59.55.562,Motor sequence,,2025.1.1,59.9726045,2025-10-02 09h00.31.495488 +0530
50,c,80,80,21,c,1,0.476702,None,,,,,21,80,80,2,454.3851565,,454.3694585,454.3851565,455.3683235,455.3683235,455.3683235,455.3683235,455.3848925,456.3683312,456.3683312,456.85218,,,,,c,1,0.476702,None,F3,1,2025-10-02_08h59.55.562,Motor sequence,,2025.1.1,59.9726045,2025-10-02 09h00.31.495488 +0530
-150,z,81,81,21,z,1,0.7012707,None,,,,,21,81,81,3,456.8683422,,456.8526926,456.8683422,457.8516613,457.8516613,457.8516613,457.8516613,457.8685123,458.8514699,458.8514699,459.5686824,,,,,z,1,0.7012707,None,F3,1,2025-10-02_08h59.55.562,Motor sequence,,2025.1.1,59.9726045,2025-10-02 09h00.31.495488 +0530
150,v,82,82,20,v,1,0.3956302,None,,,,,20,82,82,1,459.5850392,,459.5691443,459.5850392,460.567835,460.567835,460.567835,460.567835,460.5847054,461.5842449,461.5842449,461.9845424,,,,,v,1,0.3956302,None,F3,1,2025-10-02_08h59.55.562,Motor sequence,,2025.1.1,59.9726045,2025-10-02 09h00.31.495488 +0530
-150,z,83,83,22,z,1,0.4592812,None,,,,,22,83,83,3,462.0006881,,461.9847598,462.0006881,462.9847871,462.9847871,462.9847871,462.9847871,463.0012113,463.9846689,463.9846689,464.4515927,,,,,z,1,0.4592812,None,F3,1,2025-10-02_08h59.55.562,Motor sequence,,2025.1.1,59.9726045,2025-10-02 09h00.31.495488 +0530
-50,x,84,84,18,x,1,0.4551941,None,,,,,18,84,84,0,464.467893,,464.452095,464.467893,465.4510758,465.4510758,465.4510758,465.4510758,465.4678821,466.4509096,466.4509096,466.9179268,,,,,x,1,0.4551941,None,F3,1,2025-10-02_08h59.55.562,Motor sequence,,2025.1.1,59.9726045,2025-10-02 09h00.31.495488 +0530
-50,x,85,85,19,x,1,1.2525412,None,,,,,19,85,85,0,466.9341447,,466.9182097,466.9341447,467.9178763,467.9178763,467.9178763,467.9178763,467.9344442,468.9176519,468.9176519,470.1846233,,,,,x,1,1.2525412,None,F3,1,2025-10-02_08h59.55.562,Motor sequence,,2025.1.1,59.9726045,2025-10-02 09h00.31.495488 +0530
150,v,86,86,21,v,1,1.0492844,None,,,,,21,86,86,1,470.2007323,,470.1850805,470.2007323,471.1842435,471.1842435,471.1842435,471.1842435,471.2005622,472.184176,472.184176,473.2345927,,,,,v,1,1.0492844,None,F3,1,2025-10-02_08h59.55.562,Motor sequence,,2025.1.1,59.9726045,2025-10-02 09h00.31.495488 +0530
50,c,87,87,22,c,1,0.9136123,None,,,,,22,87,87,2,473.25053,,473.2353287,473.25053,474.2341668,474.2341668,474.2341668,474.2341668,474.2505237,475.2337686,475.2337686,476.1511412,,,,,c,1,0.9136123,None,F3,1,2025-10-02_08h59.55.562,Motor sequence,,2025.1.1,59.9726045,2025-10-02 09h00.31.495488 +0530
50,c,88,88,23,c,1,1.0858585,None,,,,,23,88,88,2,476.1671287,,476.1516049,476.1671287,477.1502025,477.1502025,477.1502025,477.1502025,477.1671454,478.1501511,478.1501511,479.2507963,,,,,c,1,1.0858585,None,F3,1,2025-10-02_08h59.55.562,Motor sequence,,2025.1.1,59.9726045,2025-10-02 09h00.31.495488 +0530
50,c,89,89,24,c,1,0.5840629,None,,,,,24,89,89,2,479.2668319,,479.2512554,479.2668319,480.250016,480.250016,480.250016,480.250016,480.2667767,481.250301,481.250301,481.8506791,,,,,c,1,0.5840629,None,F3,1,2025-10-02_08h59.55.562,Motor sequence,,2025.1.1,59.9726045,2025-10-02 09h00.31.495488 +0530
150,v,90,90,22,v,1,0.7973897,None,,,,,22,90,90,1,481.866748,,481.8511276,481.866748,482.8502276,482.8502276,482.8502276,482.8502276,482.8666129,483.8498559,483.8498559,484.6507094,,,,,v,1,0.7973897,None,F3,1,2025-10-02_08h59.55.562,Motor sequence,,2025.1.1,59.9726045,2025-10-02 09h00.31.495488 +0530
-50,x,91,91,20,x,1,0.9553714,None,,,,,20,91,91,0,484.6665731,,484.6512054,484.6665731,485.6497597,485.6497597,485.6497597,485.6497597,485.6664308,486.6498315,486.6498315,487.6169052,,,,,x,1,0.9553714,None,F3,1,2025-10-02_08h59.55.562,Motor sequence,,2025.1.1,59.9726045,2025-10-02 09h00.31.495488 +0530
-50,x,92,92,21,x,1,1.2486468,None,,,,,21,92,92,0,487.6332016,,487.617395,487.6332016,488.6165157,488.6165157,488.6165157,488.6165157,488.6331468,489.6161986,489.6161986,490.8667327,,,,,x,1,1.2486468,None,F3,1,2025-10-02_08h59.55.562,Motor sequence,,2025.1.1,59.9726045,2025-10-02 09h00.31.495488 +0530
-50,x,93,93,22,x,1,0.5310895,None,,,,,22,93,93,0,490.8829383,,490.8671955,490.8829383,491.8660927,491.8660927,491.8660927,491.8660927,491.8831163,492.866064,492.866064,493.3999138,,,,,x,1,0.5310895,None,F3,1,2025-10-02_08h59.55.562,Motor sequence,,2025.1.1,59.9726045,2025-10-02 09h00.31.495488 +0530
-150,z,94,94,23,z,1,1.0562132,None,,,,,23,94,94,3,493.4160556,,493.4004873,493.4160556,494.3995582,494.3995582,494.3995582,494.3995582,494.4161885,495.3993758,495.3993758,496.4665166,,,,,z,1,1.0562132,None,F3,1,2025-10-02_08h59.55.562,Motor sequence,,2025.1.1,59.9726045,2025-10-02 09h00.31.495488 +0530
150,v,95,95,23,v,1,0.7235899,None,,,,,23,95,95,1,496.4827477,,496.4670258,496.4827477,497.4659076,497.4659076,497.4659076,497.4659076,497.4825935,498.4656815,498.4656815,499.1993899,,,,,v,1,0.7235899,None,F3,1,2025-10-02_08h59.55.562,Motor sequence,,2025.1.1,59.9726045,2025-10-02 09h00.31.495488 +0530
-150,z,96,96,24,z,1,0.7831933,None,,,,,24,96,96,3,499.2156053,,499.1998694,499.2156053,500.199107,500.199107,500.199107,500.199107,500.2156446,501.1986394,501.1986394,501.9822255,,,,,z,1,0.7831933,None,F3,1,2025-10-02_08h59.55.562,Motor sequence,,2025.1.1,59.9726045,2025-10-02 09h00.31.495488 +0530
150,v,97,97,24,v,1,0.382372,None,,,,,24,97,97,1,501.9989015,,501.9824707,501.9989015,502.9822462,502.9822462,502.9822462,502.9822462,502.9988246,503.9820468,503.9820468,504.3660414,,,,,v,1,0.382372,None,F3,1,2025-10-02_08h59.55.562,Motor sequence,,2025.1.1,59.9726045,2025-10-02 09h00.31.495488 +0530
-50,x,98,98,23,x,1,0.7521604,None,,,,,23,98,98,0,504.381957,,504.3665123,504.381957,505.3656256,505.3656256,505.3656256,505.3656256,505.3821591,506.3653956,506.3653956,507.132253,,,,,x,1,0.7521604,None,F3,1,2025-10-02_08h59.55.562,Motor sequence,,2025.1.1,59.9726045,2025-10-02 09h00.31.495488 +0530
-50,x,99,99,24,x,1,0.7699828,None,,,,,24,99,99,0,507.1482975,,507.1327317,507.1482975,508.132034,508.132034,508.132034,508.132034,508.1484649,509.1317589,509.1317589,509.9157582,,,,,x,1,0.7699828,None,F3,1,2025-10-02_08h59.55.562,Motor sequence,,2025.1.1,59.9726045,2025-10-02 09h00.31.495488 +0530
