pos,corr_resp,thisN,thisTrialN,thisRepN,key_resp.keys,key_resp.corr,key_resp.rt,key_resp.duration,trials.thisRepN,trials.thisTrialN,trials.thisN,trials.thisIndex,trials_2.thisRepN,trials_2.thisTrialN,trials_2.thisN,trials_2.thisIndex,thisRow.t,notes,trial.started,fixtion.started,line1.started,line2.started,line3.started,line4.started,fixtion.stopped,probe.started,key_resp.started,trial.stopped,trials.key_resp.keys,trials.key_resp.corr,trials.key_resp.rt,trials.key_resp.duration,trials_2.key_resp.keys,trials_2.key_resp.corr,trials_2.key_resp.rt,trials_2.key_resp.duration,participant,session,date,expName,expVersion,psychopyVersion,frameRate,expStart
150,v,1,1,0,v,1,0.480106,None,0,1,1,1,,,,,2.2517555,,2.2471036,2.2517555,3.2536339,3.2536339,3.2536339,3.2536339,3.2536339,4.2535068,4.2535068,4.7371091,v,1,0.480106,None,,,,,F4,1,2025-10-02_10h10.36.448,Motor sequence,,2025.1.1,60.0305315,2025-10-02 10h21.59.593147 +0530
50,c,2,2,0,c,1,0.3352924,None,0,2,2,2,,,,,4.7534973,,4.7375624,4.7534973,5.7367098,5.7367098,5.7367098,5.7367098,5.753289,6.7366647,6.7366647,7.0871183,c,1,0.3352924,None,,,,,F4,1,2025-10-02_10h10.36.448,Motor sequence,,2025.1.1,60.0305315,2025-10-02 10h21.59.593147 +0530
-150,z,3,3,0,z,1,0.2475192,None,0,3,3,3,,,,,7.1033208,,7.0875601,7.1033208,8.0865607,8.0865607,8.0865607,8.0865607,8.1032839,9.0865814,9.0865814,9.3367641,z,1,0.2475192,None,,,,,F4,1,2025-10-02_10h10.36.448,Motor sequence,,2025.1.1,60.0305315,2025-10-02 10h21.59.593147 +0530
-50,x,4,0,1,x,1,1.4470665,None,1,0,4,0,,,,,9.3531033,,9.3372186,9.3531033,10.3361647,10.3361647,10.3361647,10.3361647,10.3531508,11.3362533,11.3362533,12.7869759,x,1,1.4470665,None,,,,,F4,1,2025-10-02_10h10.36.448,Motor sequence,,2025.1.1,60.0305315,2025-10-02 10h21.59.593147 +0530
150,v,5,1,1,v,1,0.5384652,None,1,1,5,1,,,,,12.8028666,,12.7874227,12.8028666,13.7861552,13.7861552,13.7861552,13.7861552,13.8029286,14.8029245,14.8029245,15.3533365,v,1,0.5384652,None,,,,,F4,1,2025-10-02_10h10.36.448,Motor sequence,,2025.1.1,60.0305315,2025-10-02 10h21.59.593147 +0530
50,c,6,2,1,c,1,0.9425857,None,1,2,6,2,,,,,15.3692547,,15.3537892,15.3692547,16.3528565,16.3528565,16.3528565,16.3528565,16.369226,17.3527713,17.3527713,18.3031159,c,1,0.9425857,None,,,,,F4,1,2025-10-02_10h10.36.448,Motor sequence,,2025.1.1,60.0305315,2025-10-02 10h21.59.593147 +0530
-150,z,7,3,1,z,1,0.5615095,None,1,3,7,3,,,,,18.3191923,,18.3035685,18.3191923,19.3026427,19.3026427,19.3026427,19.3026427,19.3192895,20.3025983,20.3025983,20.8696384,z,1,0.5615095,None,,,,,F4,1,2025-10-02_10h10.36.448,Motor sequence,,2025.1.1,60.0305315,2025-10-02 10h21.59.593147 +0530
-50,x,8,0,2,x,1,0.6517504,None,2,0,8,0,,,,,20.8856967,,20.8700833,20.8856967,21.8691261,21.8691261,21.8691261,21.8691261,21.8855777,22.8690712,22.8690712,23.5360206,x,1,0.6517504,None,,,,,F4,1,2025-10-02_10h10.36.448,Motor sequence,,2025.1.1,60.0305315,2025-10-02 10h21.59.593147 +0530
150,v,9,1,2,v,1,0.8485081,None,2,1,9,1,,,,,23.552129,,23.5365889,23.552129,24.5355564,24.5355564,24.5355564,24.5355564,24.5521362,25.5355054,25.5355054,26.3859127,v,1,0.8485081,None,,,,,F4,1,2025-10-02_10h10.36.448,Motor sequence,,2025.1.1,60.0305315,2025-10-02 10h21.59.593147 +0530
50,c,10,2,2,c,1,0.6573636,None,2,2,10,2,,,,,26.402176,,26.3864255,26.402176,27.3853058,27.3853058,27.3853058,27.3853058,27.4020286,28.3852109,28.3852109,29.0525558,c,1,0.6573636,None,,,,,F4,1,2025-10-02_10h10.36.448,Motor sequence,,2025.1.1,60.0305315,2025-10-02 10h21.59.593147 +0530
-150,z,11,3,2,z,1,0.3137207,None,2,3,11,3,,,,,29.0686901,,29.0530141,29.0686901,30.0519475,30.0519475,30.0519475,30.0519475,30.0686912,31.0518159,31.0518159,31.3691682,z,1,0.3137207,None,,,,,F4,1,2025-10-02_10h10.36.448,Motor sequence,,2025.1.1,60.0305315,2025-10-02 10h21.59.593147 +0530
150,v,13,1,3,v,1,0.3388916,None,3,1,13,1,,,,,33.7683718,,33.752756,33.7683718,34.7516908,34.7516908,34.7516908,34.7516908,34.7683583,35.7515985,35.7515985,36.1020229,v,1,0.3388916,None,,,,,F4,1,2025-10-02_10h10.36.448,Motor sequence,,2025.1.1,60.0305315,2025-10-02 10h21.59.593147 +0530
50,c,14,2,3,c,1,0.6522036,None,3,2,14,2,,,,,36.1182364,,36.1024654,36.1182364,37.1015124,37.1015124,37.1015124,37.1015124,37.118173,38.101225,38.101225,38.7686509,c,1,0.6522036,None,,,,,F4,1,2025-10-02_10h10.36.448,Motor sequence,,2025.1.1,60.0305315,2025-10-02 10h21.59.593147 +0530
-150,z,15,3,3,z,1,0.3135454,None,3,3,15,3,,,,,38.784714,,38.7691062,38.784714,39.7678609,39.7678609,39.7678609,39.7678609,39.784305,40.7680421,40.7680421,41.0853448,z,1,0.3135454,None,,,,,F4,1,2025-10-02_10h10.36.448,Motor sequence,,2025.1.1,60.0305315,2025-10-02 10h21.59.593147 +0530
-50,x,16,0,4,x,1,0.3843748,None,4,0,16,0,,,,,41.1013086,,41.0858358,41.1013086,42.0844945,42.0844945,42.0844945,42.0844945,42.1012994,43.0845433,43.0845433,43.4850487,x,1,0.3843748,None,,,,,F4,1,2025-10-02_10h10.36.448,Motor sequence,,2025.1.1,60.0305315,2025-10-02 10h21.59.593147 +0530
150,v,17,1,4,v,1,0.4826214,None,4,1,17,1,,,,,43.5009769,,43.4856665,43.5009769,44.48431,44.48431,44.48431,44.48431,44.5011649,45.4843622,45.4843622,45.9682664,v,1,0.4826214,None,,,,,F4,1,2025-10-02_10h10.36.448,Motor sequence,,2025.1.1,60.0305315,2025-10-02 10h21.59.593147 +0530
50,c,18,2,4,c,1,1.0739586,None,4,2,18,2,,,,,45.9843441,,45.9687211,45.9843441,46.9676495,46.9676495,46.9676495,46.9676495,46.9842663,47.9675187,47.9675187,49.0514117,c,1,1.0739586,None,,,,,F4,1,2025-10-02_10h10.36.448,Motor sequence,,2025.1.1,60.0305315,2025-10-02 10h21.59.593147 +0530
-150,z,19,3,4,z,1,0.4863763,None,4,3,19,3,,,,,49.067543,,49.0518628,49.067543,50.0507382,50.0507382,50.0507382,50.0507382,50.0673927,51.0673107,51.0673107,51.5678789,z,1,0.4863763,None,,,,,F4,1,2025-10-02_10h10.36.448,Motor sequence,,2025.1.1,60.0305315,2025-10-02 10h21.59.593147 +0530
-50,x,20,0,5,x,1,0.5195714,None,5,0,20,0,,,,,51.5839464,,51.568333,51.5839464,52.5672168,52.5672168,52.5672168,52.5672168,52.5839254,53.5672297,53.5672297,54.1011414,x,1,0.5195714,None,,,,,F4,1,2025-10-02_10h10.36.448,Motor sequence,,2025.1.1,60.0305315,2025-10-02 10h21.59.593147 +0530
150,v,21,1,5,v,1,0.7395338,None,5,1,21,1,,,,,54.1171979,,54.1015879,54.1171979,55.100385,55.100385,55.100385,55.100385,55.1170875,56.1004222,56.1004222,56.8509783,v,1,0.7395338,None,,,,,F4,1,2025-10-02_10h10.36.448,Motor sequence,,2025.1.1,60.0305315,2025-10-02 10h21.59.593147 +0530
50,c,22,2,5,c,1,0.0938384,None,5,2,22,2,,,,,56.8671004,,56.851418,56.8671004,57.8503399,57.8503399,57.8503399,57.8503399,57.8668831,58.8502837,58.8502837,58.9508561,c,1,0.0938384,None,,,,,F4,1,2025-10-02_10h10.36.448,Motor sequence,,2025.1.1,60.0305315,2025-10-02 10h21.59.593147 +0530
-150,z,23,3,5,z,1,0.3301373,None,5,3,23,3,,,,,58.9667035,,58.9513019,58.9667035,59.9501874,59.9501874,59.9501874,59.9501874,59.9669539,60.9500745,60.9500745,61.2838653,z,1,0.3301373,None,,,,,F4,1,2025-10-02_10h10.36.448,Motor sequence,,2025.1.1,60.0305315,2025-10-02 10h21.59.593147 +0530
-50,x,24,0,6,x,1,0.0551447,None,6,0,24,0,,,,,61.2999878,,61.2843084,61.2999878,62.2833568,62.2833568,62.2833568,62.2833568,62.29986,63.2833134,63.2833134,63.3506009,x,1,0.0551447,None,,,,,F4,1,2025-10-02_10h10.36.448,Motor sequence,,2025.1.1,60.0305315,2025-10-02 10h21.59.593147 +0530
150,v,25,1,6,v,1,0.1214399,None,6,1,25,1,,,,,63.3666447,,63.3510407,63.3666447,64.3497976,64.3497976,64.3497976,64.3497976,64.3664505,65.3497873,65.3497873,65.4836771,v,1,0.1214399,None,,,,,F4,1,2025-10-02_10h10.36.448,Motor sequence,,2025.1.1,60.0305315,2025-10-02 10h21.59.593147 +0530
50,c,26,2,6,c,1,0.2709254,None,6,2,26,2,,,,,65.4997319,,65.4841361,65.4997319,66.4827988,66.4827988,66.4827988,66.4827988,66.4998059,67.482957,67.482957,67.7668907,c,1,0.2709254,None,,,,,F4,1,2025-10-02_10h10.36.448,Motor sequence,,2025.1.1,60.0305315,2025-10-02 10h21.59.593147 +0530
-150,z,27,3,6,z,1,0.294706,None,6,3,27,3,,,,,67.7827098,,67.7673326,67.7827098,68.7662308,68.7662308,68.7662308,68.7662308,68.7829771,69.7662934,69.7662934,70.0667741,z,1,0.294706,None,,,,,F4,1,2025-10-02_10h10.36.448,Motor sequence,,2025.1.1,60.0305315,2025-10-02 10h21.59.593147 +0530
-50,x,28,0,7,x,1,0.2215323,None,7,0,28,0,,,,,70.0828541,,70.0671576,70.0828541,71.0661031,71.0661031,71.0661031,71.0661031,71.0828207,72.0827521,72.0827521,72.316684,x,1,0.2215323,None,,,,,F4,1,2025-10-02_10h10.36.448,Motor sequence,,2025.1.1,60.0305315,2025-10-02 10h21.59.593147 +0530
150,v,29,1,7,v,1,0.270218,None,7,1,29,1,,,,,72.3325566,,72.3171925,72.3325566,73.3158706,73.3158706,73.3158706,73.3158706,73.3326959,74.3157439,74.3157439,74.5990437,v,1,0.270218,None,,,,,F4,1,2025-10-02_10h10.36.448,Motor sequence,,2025.1.1,60.0305315,2025-10-02 10h21.59.593147 +0530
50,c,30,2,7,c,1,0.254513,None,7,2,30,2,,,,,74.6154007,,74.5992519,74.6154007,75.5989469,75.5989469,75.5989469,75.5989469,75.6158579,76.5992158,76.5992158,76.8666648,c,1,0.254513,None,,,,,F4,1,2025-10-02_10h10.36.448,Motor sequence,,2025.1.1,60.0305315,2025-10-02 10h21.59.593147 +0530
-150,z,31,3,7,z,1,0.2393661,None,7,3,31,3,,,,,76.8821189,,76.8672513,76.8821189,77.8658486,77.8658486,77.8658486,77.8658486,77.8824244,78.8819089,78.8819089,79.1324098,z,1,0.2393661,None,,,,,F4,1,2025-10-02_10h10.36.448,Motor sequence,,2025.1.1,60.0305315,2025-10-02 10h21.59.593147 +0530
-50,x,32,0,8,x,1,0.2628106,None,8,0,32,0,,,,,79.1489055,,79.1326238,79.1489055,80.1320511,80.1320511,80.1320511,80.1320511,80.1488459,81.1321979,81.1321979,81.399382,x,1,0.2628106,None,,,,,F4,1,2025-10-02_10h10.36.448,Motor sequence,,2025.1.1,60.0305315,2025-10-02 10h21.59.593147 +0530
150,v,33,1,8,v,1,0.2789279,None,8,1,33,1,,,,,81.4156248,,81.3998482,81.4156248,82.3985991,82.3985991,82.3985991,82.3985991,82.41539,83.3987445,83.3987445,83.6825923,v,1,0.2789279,None,,,,,F4,1,2025-10-02_10h10.36.448,Motor sequence,,2025.1.1,60.0305315,2025-10-02 10h21.59.593147 +0530
50,c,34,2,8,c,1,0.2986578,None,8,2,34,2,,,,,83.6986859,,83.6830351,83.6986859,84.6820388,84.6820388,84.6820388,84.6820388,84.6984303,85.6819173,85.6819173,85.9824481,c,1,0.2986578,None,,,,,F4,1,2025-10-02_10h10.36.448,Motor sequence,,2025.1.1,60.0305315,2025-10-02 10h21.59.593147 +0530
-150,z,35,3,8,z,1,0.2156983,None,8,3,35,3,,,,,85.9986419,,85.9828956,85.9986419,86.981819,86.981819,86.981819,86.981819,86.9985703,87.9816976,87.9816976,88.1990858,z,1,0.2156983,None,,,,,F4,1,2025-10-02_10h10.36.448,Motor sequence,,2025.1.1,60.0305315,2025-10-02 10h21.59.593147 +0530
-50,x,36,0,9,x,1,0.3002197,None,9,0,36,0,,,,,88.2150555,,88.1995277,88.2150555,89.1982207,89.1982207,89.1982207,89.1982207,89.2150102,90.2148693,90.2148693,90.532033,x,1,0.3002197,None,,,,,F4,1,2025-10-02_10h10.36.448,Motor sequence,,2025.1.1,60.0305315,2025-10-02 10h21.59.593147 +0530
150,v,37,1,9,v,1,0.1510064,None,9,1,37,1,,,,,90.5482833,,90.5324772,90.5482833,91.5314662,91.5314662,91.5314662,91.5314662,91.5483,92.5314941,92.5314941,92.6985687,v,1,0.1510064,None,,,,,F4,1,2025-10-02_10h10.36.448,Motor sequence,,2025.1.1,60.0305315,2025-10-02 10h21.59.593147 +0530
50,c,38,2,9,c,1,0.302315,None,9,2,38,2,,,,,92.714703,,92.6990125,92.714703,93.6980993,93.6980993,93.6980993,93.6980993,93.7146856,94.6979919,94.6979919,95.0152622,c,1,0.302315,None,,,,,F4,1,2025-10-02_10h10.36.448,Motor sequence,,2025.1.1,60.0305315,2025-10-02 10h21.59.593147 +0530
-150,z,39,3,9,z,1,0.2534507,None,9,3,39,3,,,,,95.0313345,,95.0157202,95.0313345,96.0145955,96.0145955,96.0145955,96.0145955,96.0311595,97.0147344,97.0147344,97.2817893,z,1,0.2534507,None,,,,,F4,1,2025-10-02_10h10.36.448,Motor sequence,,2025.1.1,60.0305315,2025-10-02 10h21.59.593147 +0530
-50,x,40,0,10,x,1,0.2447933,None,10,0,40,0,,,,,97.2979486,,97.2822327,97.2979486,98.2811707,98.2811707,98.2811707,98.2811707,98.2977766,99.2810676,99.2810676,99.5313897,x,1,0.2447933,None,,,,,F4,1,2025-10-02_10h10.36.448,Motor sequence,,2025.1.1,60.0305315,2025-10-02 10h21.59.593147 +0530
150,v,41,1,10,v,1,0.29335,None,10,1,41,1,,,,,99.5478005,,99.5318406,99.5478005,100.5310441,100.5310441,100.5310441,100.5310441,100.5476975,101.5309241,101.5309241,101.8313469,v,1,0.29335,None,,,,,F4,1,2025-10-02_10h10.36.448,Motor sequence,,2025.1.1,60.0305315,2025-10-02 10h21.59.593147 +0530
50,c,42,2,10,c,1,0.4909345,None,10,2,42,2,,,,,101.8476603,,101.8317911,101.8476603,102.8308754,102.8308754,102.8308754,102.8308754,102.8476073,103.8306762,103.8306762,104.3312523,c,1,0.4909345,None,,,,,F4,1,2025-10-02_10h10.36.448,Motor sequence,,2025.1.1,60.0305315,2025-10-02 10h21.59.593147 +0530
-150,z,43,3,10,z,1,0.2541951,None,10,3,43,3,,,,,104.3473758,,104.3317655,104.3473758,105.3307637,105.3307637,105.3307637,105.3307637,105.3474386,106.3307418,106.3307418,106.5979387,z,1,0.2541951,None,,,,,F4,1,2025-10-02_10h10.36.448,Motor sequence,,2025.1.1,60.0305315,2025-10-02 10h21.59.593147 +0530
-50,x,44,0,11,x,1,0.1696045,None,11,0,44,0,,,,,106.6140387,,106.5984064,106.6140387,107.5973511,107.5973511,107.5973511,107.5973511,107.613999,108.5972704,108.5972704,108.7810107,x,1,0.1696045,None,,,,,F4,1,2025-10-02_10h10.36.448,Motor sequence,,2025.1.1,60.0305315,2025-10-02 10h21.59.593147 +0530
150,v,45,1,11,v,1,0.2898327,None,11,1,45,1,,,,,108.7972576,,108.7814554,108.7972576,109.780485,109.780485,109.780485,109.780485,109.7971682,110.7804188,110.7804188,111.0809305,v,1,0.2898327,None,,,,,F4,1,2025-10-02_10h10.36.448,Motor sequence,,2025.1.1,60.0305315,2025-10-02 10h21.59.593147 +0530
50,c,46,2,11,c,1,0.2778287,None,11,2,46,2,,,,,111.0968125,,111.0813591,111.0968125,112.0802352,112.0802352,112.0802352,112.0802352,112.0969455,113.0801302,113.0801302,113.363972,c,1,0.2778287,None,,,,,F4,1,2025-10-02_10h10.36.448,Motor sequence,,2025.1.1,60.0305315,2025-10-02 10h21.59.593147 +0530
-150,z,47,3,11,z,1,0.2921883,None,11,3,47,3,,,,,113.380251,,113.3644182,113.380251,114.3635334,114.3635334,114.3635334,114.3635334,114.3802672,115.3635279,115.3635279,115.6641054,z,1,0.2921883,None,,,,,F4,1,2025-10-02_10h10.36.448,Motor sequence,,2025.1.1,60.0305315,2025-10-02 10h21.59.593147 +0530
-50,x,48,0,12,x,1,0.2549395,None,12,0,48,0,,,,,115.6798421,,115.6646204,115.6798421,116.6634102,116.6634102,116.6634102,116.6634102,116.6800978,117.6633926,117.6633926,117.9302831,x,1,0.2549395,None,,,,,F4,1,2025-10-02_10h10.36.448,Motor sequence,,2025.1.1,60.0305315,2025-10-02 10h21.59.593147 +0530
150,v,49,1,12,v,1,0.4506538,None,12,1,49,1,,,,,117.9464964,,117.930737,117.9464964,118.929918,118.929918,118.929918,118.929918,118.9462859,119.9296867,119.9296867,120.3969942,v,1,0.4506538,None,,,,,F4,1,2025-10-02_10h10.36.448,Motor sequence,,2025.1.1,60.0305315,2025-10-02 10h21.59.593147 +0530
50,c,50,2,12,c,1,0.2878902,None,12,2,50,2,,,,,120.4129661,,120.397566,120.4129661,121.396411,121.396411,121.396411,121.396411,121.4131678,122.3963227,122.3963227,122.6967345,c,1,0.2878902,None,,,,,F4,1,2025-10-02_10h10.36.448,Motor sequence,,2025.1.1,60.0305315,2025-10-02 10h21.59.593147 +0530
-150,z,51,3,12,z,1,0.3116356,None,12,3,51,3,,,,,122.712941,,122.6971837,122.712941,123.69636,123.69636,123.69636,123.69636,123.7129898,124.6961942,124.6961942,125.0133134,z,1,0.3116356,None,,,,,F4,1,2025-10-02_10h10.36.448,Motor sequence,,2025.1.1,60.0305315,2025-10-02 10h21.59.593147 +0530
-50,x,52,0,13,x,1,0.2662651,None,13,0,52,0,,,,,125.0294092,,125.0137744,125.0294092,126.0127694,126.0127694,126.0127694,126.0127694,126.0294768,127.0127181,127.0127181,127.2798671,x,1,0.2662651,None,,,,,F4,1,2025-10-02_10h10.36.448,Motor sequence,,2025.1.1,60.0305315,2025-10-02 10h21.59.593147 +0530
150,v,53,1,13,v,1,0.2975111,None,13,1,53,1,,,,,127.2961238,,127.2803094,127.2961238,128.2791441,128.2791441,128.2791441,128.2791441,128.2960582,129.2792245,129.2792245,129.5798198,v,1,0.2975111,None,,,,,F4,1,2025-10-02_10h10.36.448,Motor sequence,,2025.1.1,60.0305315,2025-10-02 10h21.59.593147 +0530
50,c,54,2,13,c,1,0.2961018,None,13,2,54,2,,,,,129.5959555,,129.5802727,129.5959555,130.5791792,130.5791792,130.5791792,130.5791792,130.5959967,131.5790975,131.5790975,131.8794311,c,1,0.2961018,None,,,,,F4,1,2025-10-02_10h10.36.448,Motor sequence,,2025.1.1,60.0305315,2025-10-02 10h21.59.593147 +0530
-150,z,55,3,13,z,1,0.2984928,None,13,3,55,3,,,,,131.895513,,131.8798785,131.895513,132.8790658,132.8790658,132.8790658,132.8790658,132.8957847,133.8788741,133.8788741,134.179454,z,1,0.2984928,None,,,,,F4,1,2025-10-02_10h10.36.448,Motor sequence,,2025.1.1,60.0305315,2025-10-02 10h21.59.593147 +0530
-50,x,56,0,14,x,1,0.4716476,None,14,0,56,0,,,,,134.1955586,,134.1798974,134.1955586,135.178853,135.178853,135.178853,135.178853,135.1954061,136.1788763,136.1788763,136.6628183,x,1,0.4716476,None,,,,,F4,1,2025-10-02_10h10.36.448,Motor sequence,,2025.1.1,60.0305315,2025-10-02 10h21.59.593147 +0530
150,v,57,1,14,v,1,0.2870714,None,14,1,57,1,,,,,136.6785121,,136.6634394,136.6785121,137.6621449,137.6621449,137.6621449,137.6621449,137.6787007,138.6621084,138.6621084,138.9625612,v,1,0.2870714,None,,,,,F4,1,2025-10-02_10h10.36.448,Motor sequence,,2025.1.1,60.0305315,2025-10-02 10h21.59.593147 +0530
50,c,58,2,14,c,1,0.3745403,None,14,2,58,2,,,,,138.9783717,,138.9631056,138.9783717,139.9619174,139.9619174,139.9619174,139.9619174,139.9785175,140.961966,140.961966,141.3457503,c,1,0.3745403,None,,,,,F4,1,2025-10-02_10h10.36.448,Motor sequence,,2025.1.1,60.0305315,2025-10-02 10h21.59.593147 +0530
-150,z,59,3,14,z,1,0.3977522,None,14,3,59,3,,,,,141.3618462,,141.346197,141.3618462,142.3450961,142.3450961,142.3450961,142.3450961,142.3618972,143.3615871,143.3615871,143.762277,z,1,0.3977522,None,,,,,F4,1,2025-10-02_10h10.36.448,Motor sequence,,2025.1.1,60.0305315,2025-10-02 10h21.59.593147 +0530
-50,x,60,0,15,x,1,0.2064354,None,15,0,60,0,,,,,143.778327,,143.7627854,143.778327,144.7617475,144.7617475,144.7617475,144.7617475,144.7781303,145.7616874,145.7616874,145.9788336,x,1,0.2064354,None,,,,,F4,1,2025-10-02_10h10.36.448,Motor sequence,,2025.1.1,60.0305315,2025-10-02 10h21.59.593147 +0530
150,v,61,1,15,v,1,0.047531,None,15,1,61,1,,,,,145.9949771,,145.9792959,145.9949771,146.9782069,146.9782069,146.9782069,146.9782069,146.9949499,147.9780493,147.9780493,148.0286854,v,1,0.047531,None,,,,,F4,1,2025-10-02_10h10.36.448,Motor sequence,,2025.1.1,60.0305315,2025-10-02 10h21.59.593147 +0530
50,c,62,2,15,c,1,0.2945017,None,15,2,62,2,,,,,148.0446381,,148.029132,148.0446381,149.0278112,149.0278112,149.0278112,149.0278112,149.0448386,150.0280657,150.0280657,150.3285097,c,1,0.2945017,None,,,,,F4,1,2025-10-02_10h10.36.448,Motor sequence,,2025.1.1,60.0305315,2025-10-02 10h21.59.593147 +0530
-150,z,63,3,15,z,1,0.7939389,None,15,3,63,3,,,,,150.3445897,,150.3289806,150.3445897,151.3279614,151.3279614,151.3279614,151.3279614,151.3446718,152.3278736,152.3278736,153.1282979,z,1,0.7939389,None,,,,,F4,1,2025-10-02_10h10.36.448,Motor sequence,,2025.1.1,60.0305315,2025-10-02 10h21.59.593147 +0530
-50,x,64,0,16,x,1,0.3920424,None,16,0,64,0,,,,,153.1443249,,153.1287461,153.1443249,154.1277314,154.1277314,154.1277314,154.1277314,154.1444043,155.1276986,155.1276986,155.5282448,x,1,0.3920424,None,,,,,F4,1,2025-10-02_10h10.36.448,Motor sequence,,2025.1.1,60.0305315,2025-10-02 10h21.59.593147 +0530
150,v,65,1,16,v,1,1.0351036,None,16,1,65,1,,,,,155.5442913,,155.5287627,155.5442913,156.5276092,156.5276092,156.5276092,156.5276092,156.5443501,157.5275846,157.5275846,158.5780848,v,1,1.0351036,None,,,,,F4,1,2025-10-02_10h10.36.448,Motor sequence,,2025.1.1,60.0305315,2025-10-02 10h21.59.593147 +0530
50,c,66,2,16,c,1,0.2480179,None,16,2,66,2,,,,,158.593968,,158.578658,158.593968,159.5772187,159.5772187,159.5772187,159.5772187,159.594072,160.5772661,160.5772661,160.8278631,c,1,0.2480179,None,,,,,F4,1,2025-10-02_10h10.36.448,Motor sequence,,2025.1.1,60.0305315,2025-10-02 10h21.59.593147 +0530
-50,x,68,0,17,x,1,0.2417065,None,17,0,68,0,,,,,163.0604939,,163.0448804,163.0604939,164.0439187,164.0439187,164.0439187,164.0439187,164.0605407,165.0438385,165.0438385,165.2944023,x,1,0.2417065,None,,,,,F4,1,2025-10-02_10h10.36.448,Motor sequence,,2025.1.1,60.0305315,2025-10-02 10h21.59.593147 +0530
150,v,69,1,17,v,1,0.3400039,None,17,1,69,1,,,,,165.3104866,,165.2948434,165.3104866,166.293735,166.293735,166.293735,166.293735,166.3104302,167.2934606,167.2934606,167.6442433,v,1,0.3400039,None,,,,,F4,1,2025-10-02_10h10.36.448,Motor sequence,,2025.1.1,60.0305315,2025-10-02 10h21.59.593147 +0530
50,c,70,2,17,c,1,0.3174908,None,17,2,70,2,,,,,167.6603232,,167.6447304,167.6603232,168.6435957,168.6435957,168.6435957,168.6435957,168.6602244,169.6433827,169.6433827,169.9773823,c,1,0.3174908,None,,,,,F4,1,2025-10-02_10h10.36.448,Motor sequence,,2025.1.1,60.0305315,2025-10-02 10h21.59.593147 +0530
-150,z,71,3,17,z,1,0.1769098,None,17,3,71,3,,,,,169.9932817,,169.9778273,169.9932817,170.9767566,170.9767566,170.9767566,170.9767566,170.9934338,171.9767026,171.9767026,172.1606429,z,1,0.1769098,None,,,,,F4,1,2025-10-02_10h10.36.448,Motor sequence,,2025.1.1,60.0305315,2025-10-02 10h21.59.593147 +0530
-50,x,72,0,18,x,1,0.1463854,None,18,0,72,0,,,,,172.1766593,,172.1611015,172.1766593,173.1599668,173.1599668,173.1599668,173.1599668,173.1765017,174.1599712,174.1599712,174.3102329,x,1,0.1463854,None,,,,,F4,1,2025-10-02_10h10.36.448,Motor sequence,,2025.1.1,60.0305315,2025-10-02 10h21.59.593147 +0530
150,v,73,1,18,v,1,0.3543244,None,18,1,73,1,,,,,174.3265433,,174.3106779,174.3265433,175.3097811,175.3097811,175.3097811,175.3097811,175.3264956,176.3098171,176.3098171,176.6770252,v,1,0.3543244,None,,,,,F4,1,2025-10-02_10h10.36.448,Motor sequence,,2025.1.1,60.0305315,2025-10-02 10h21.59.593147 +0530
50,c,74,2,18,c,1,0.3966749,None,18,2,74,2,,,,,176.6931419,,176.6774695,176.6931419,177.6763843,177.6763843,177.6763843,177.6763843,177.6931784,178.6762702,178.6762702,179.0767301,c,1,0.3966749,None,,,,,F4,1,2025-10-02_10h10.36.448,Motor sequence,,2025.1.1,60.0305315,2025-10-02 10h21.59.593147 +0530
-150,z,75,3,18,z,1,0.6991779,None,18,3,75,3,,,,,179.0927552,,179.0771743,179.0927552,180.0762085,180.0762085,180.0762085,180.0762085,180.092938,181.0761032,181.0761032,181.7764668,z,1,0.6991779,None,,,,,F4,1,2025-10-02_10h10.36.448,Motor sequence,,2025.1.1,60.0305315,2025-10-02 10h21.59.593147 +0530
-50,x,76,0,19,x,1,1.2898443,None,19,0,76,0,,,,,181.7926038,,181.7769114,181.7926038,182.776013,182.776013,182.776013,182.776013,182.7926582,183.7759573,183.7759573,185.0761492,x,1,1.2898443,None,,,,,F4,1,2025-10-02_10h10.36.448,Motor sequence,,2025.1.1,60.0305315,2025-10-02 10h21.59.593147 +0530
150,v,77,1,19,v,1,0.2511907,None,19,1,77,1,,,,,185.0925254,,185.0765958,185.0925254,186.0755435,186.0755435,186.0755435,186.0755435,186.0924102,187.0757657,187.0757657,187.3428598,v,1,0.2511907,None,,,,,F4,1,2025-10-02_10h10.36.448,Motor sequence,,2025.1.1,60.0305315,2025-10-02 10h21.59.593147 +0530
50,c,78,2,19,c,1,0.317299,None,19,2,78,2,,,,,187.3591709,,187.3433075,187.3591709,188.3423251,188.3423251,188.3423251,188.3423251,188.3589369,189.342368,189.342368,189.6760743,c,1,0.317299,None,,,,,F4,1,2025-10-02_10h10.36.448,Motor sequence,,2025.1.1,60.0305315,2025-10-02 10h21.59.593147 +0530
-150,z,79,3,19,z,1,0.2674587,None,19,3,79,3,,,,,189.6923389,,189.6765204,189.6923389,190.6753915,190.6753915,190.6753915,190.6753915,190.6922817,191.6752185,191.6752185,191.9594142,z,1,0.2674587,None,,,,,F4,1,2025-10-02_10h10.36.448,Motor sequence,,2025.1.1,60.0305315,2025-10-02 10h21.59.593147 +0530
-50,x,80,0,20,x,1,0.2568664,None,20,0,80,0,,,,,191.9754597,,191.9598792,191.9754597,192.9587507,192.9587507,192.9587507,192.9587507,192.9754293,193.9587666,193.9587666,194.2257527,x,1,0.2568664,None,,,,,F4,1,2025-10-02_10h10.36.448,Motor sequence,,2025.1.1,60.0305315,2025-10-02 10h21.59.593147 +0530
150,v,81,1,20,v,1,0.2980325,None,20,1,81,1,,,,,194.24194,,194.2262686,194.24194,195.2252269,195.2252269,195.2252269,195.2252269,195.2420213,196.2251943,196.2251943,196.5257728,v,1,0.2980325,None,,,,,F4,1,2025-10-02_10h10.36.448,Motor sequence,,2025.1.1,60.0305315,2025-10-02 10h21.59.593147 +0530
50,c,82,2,20,c,1,0.3517866,None,20,2,82,2,,,,,196.5417061,,196.5263472,196.5417061,197.5249904,197.5249904,197.5249904,197.5249904,197.5419287,198.5249659,198.5249659,198.8922015,c,1,0.3517866,None,,,,,F4,1,2025-10-02_10h10.36.448,Motor sequence,,2025.1.1,60.0305315,2025-10-02 10h21.59.593147 +0530
-150,z,83,3,20,z,1,0.6278317,None,20,3,83,3,,,,,198.9084619,,198.8926405,198.9084619,199.8917198,199.8917198,199.8917198,199.8917198,199.908401,200.8916768,200.8916768,201.5254466,z,1,0.6278317,None,,,,,F4,1,2025-10-02_10h10.36.448,Motor sequence,,2025.1.1,60.0305315,2025-10-02 10h21.59.593147 +0530
-50,x,84,0,21,x,1,0.3281856,None,21,0,84,0,,,,,201.5416079,,201.5258935,201.5416079,202.524863,202.524863,202.524863,202.524863,202.5415844,203.524789,203.524789,203.8587546,x,1,0.3281856,None,,,,,F4,1,2025-10-02_10h10.36.448,Motor sequence,,2025.1.1,60.0305315,2025-10-02 10h21.59.593147 +0530
150,v,85,1,21,v,1,0.3022292,None,21,1,85,1,,,,,203.8747525,,203.8591988,203.8747525,204.8580433,204.8580433,204.8580433,204.8580433,204.8747177,205.8578547,205.8578547,206.1751891,v,1,0.3022292,None,,,,,F4,1,2025-10-02_10h10.36.448,Motor sequence,,2025.1.1,60.0305315,2025-10-02 10h21.59.593147 +0530
50,c,86,2,21,c,1,0.2944237,None,21,2,86,2,,,,,206.191126,,206.1757436,206.191126,207.1745688,207.1745688,207.1745688,207.1745688,207.1910611,208.1744054,208.1744054,208.4750511,c,1,0.2944237,None,,,,,F4,1,2025-10-02_10h10.36.448,Motor sequence,,2025.1.1,60.0305315,2025-10-02 10h21.59.593147 +0530
-150,z,87,3,21,z,1,0.4418945,None,21,3,87,3,,,,,208.4909579,,208.4755069,208.4909579,209.4744612,209.4744612,209.4744612,209.4744612,209.4909019,210.4743688,210.4743688,210.9251264,z,1,0.4418945,None,,,,,F4,1,2025-10-02_10h10.36.448,Motor sequence,,2025.1.1,60.0305315,2025-10-02 10h21.59.593147 +0530
-50,x,88,0,22,x,1,0.3082759,None,22,0,88,0,,,,,210.940723,,210.9260265,210.940723,211.9242028,211.9242028,211.9242028,211.9242028,211.9409067,212.9409355,212.9409355,213.2580564,x,1,0.3082759,None,,,,,F4,1,2025-10-02_10h10.36.448,Motor sequence,,2025.1.1,60.0305315,2025-10-02 10h21.59.593147 +0530
150,v,89,1,22,v,1,0.2946912,None,22,1,89,1,,,,,213.2739391,,213.2585501,213.2739391,214.2574892,214.2574892,214.2574892,214.2574892,214.2740167,215.2574769,215.2574769,215.5580068,v,1,0.2946912,None,,,,,F4,1,2025-10-02_10h10.36.448,Motor sequence,,2025.1.1,60.0305315,2025-10-02 10h21.59.593147 +0530
50,c,90,2,22,c,1,0.2671276,None,22,2,90,2,,,,,215.5740257,,215.5584622,215.5740257,216.5572648,216.5572648,216.5572648,216.5572648,216.5739827,217.5573626,217.5573626,217.8410897,c,1,0.2671276,None,,,,,F4,1,2025-10-02_10h10.36.448,Motor sequence,,2025.1.1,60.0305315,2025-10-02 10h21.59.593147 +0530
-150,z,91,3,22,z,1,0.1314189,None,22,3,91,3,,,,,217.8573052,,217.8415486,217.8573052,218.8403979,218.8403979,218.8403979,218.8403979,218.8572537,219.8404537,219.8404537,219.9735951,z,1,0.1314189,None,,,,,F4,1,2025-10-02_10h10.36.448,Motor sequence,,2025.1.1,60.0305315,2025-10-02 10h21.59.593147 +0530
-50,x,92,0,23,x,1,0.346202,None,23,0,92,0,,,,,219.9900512,,219.9737802,219.9900512,220.9735664,220.9735664,220.9735664,220.9735664,220.9904003,221.973507,221.973507,222.32397,x,1,0.346202,None,,,,,F4,1,2025-10-02_10h10.36.448,Motor sequence,,2025.1.1,60.0305315,2025-10-02 10h21.59.593147 +0530
150,v,93,1,23,v,1,0.2594482,None,23,1,93,1,,,,,222.3401666,,222.3244183,222.3401666,223.3236535,223.3236535,223.3236535,223.3236535,223.3400742,224.3235141,224.3235141,224.5907803,v,1,0.2594482,None,,,,,F4,1,2025-10-02_10h10.36.448,Motor sequence,,2025.1.1,60.0305315,2025-10-02 10h21.59.593147 +0530
50,c,94,2,23,c,1,0.2650124,None,23,2,94,2,,,,,224.606781,,224.5912255,224.606781,225.5900894,225.5900894,225.5900894,225.5900894,225.6068271,226.590112,226.590112,226.8573368,c,1,0.2650124,None,,,,,F4,1,2025-10-02_10h10.36.448,Motor sequence,,2025.1.1,60.0305315,2025-10-02 10h21.59.593147 +0530
-150,z,95,3,23,z,1,0.2370365,None,23,3,95,3,,,,,226.8733526,,226.8577883,226.8733526,227.8565479,227.8565479,227.8565479,227.8565479,227.8731871,228.8564399,228.8564399,229.107141,z,1,0.2370365,None,,,,,F4,1,2025-10-02_10h10.36.448,Motor sequence,,2025.1.1,60.0305315,2025-10-02 10h21.59.593147 +0530
-50,x,96,0,24,x,1,0.304455,None,24,0,96,0,,,,,229.1231919,,229.1076183,229.1231919,230.1064997,230.1064997,230.1064997,230.1064997,230.1231564,231.1062983,231.1062983,231.4236377,x,1,0.304455,None,,,,,F4,1,2025-10-02_10h10.36.448,Motor sequence,,2025.1.1,60.0305315,2025-10-02 10h21.59.593147 +0530
150,v,97,1,24,v,1,0.3452487,None,24,1,97,1,,,,,231.4397992,,231.4240795,231.4397992,232.423016,232.423016,232.423016,232.423016,232.4398012,233.4229721,233.4229721,233.7732862,v,1,0.3452487,None,,,,,F4,1,2025-10-02_10h10.36.448,Motor sequence,,2025.1.1,60.0305315,2025-10-02 10h21.59.593147 +0530
50,c,98,2,24,c,1,0.3330202,None,24,2,98,2,,,,,233.7896631,,233.7737268,233.7896631,234.7729341,234.7729341,234.7729341,234.7729341,234.789601,235.7728356,235.7728356,236.1066356,c,1,0.3330202,None,,,,,F4,1,2025-10-02_10h10.36.448,Motor sequence,,2025.1.1,60.0305315,2025-10-02 10h21.59.593147 +0530
-150,z,99,3,24,z,1,0.3067079,None,24,3,99,3,,,,,236.122798,,236.1070767,236.122798,237.1059802,237.1059802,237.1059802,237.1059802,237.1225992,238.105867,238.105867,238.4229714,z,1,0.3067079,None,,,,,F4,1,2025-10-02_10h10.36.448,Motor sequence,,2025.1.1,60.0305315,2025-10-02 10h21.59.593147 +0530
50,c,0,0,0,c,1,1.0586001,None,,,,,0,0,0,2,238.4392891,,238.4323582,238.4392891,239.4226054,239.4226054,239.4226054,239.4226054,239.4393336,240.4222025,240.4222025,241.4897641,,,,,c,1,1.0586001,None,F4,1,2025-10-02_10h10.36.448,Motor sequence,,2025.1.1,60.0305315,2025-10-02 10h21.59.593147 +0530
50,c,1,1,1,c,1,0.5435685,None,,,,,1,1,1,2,241.5058755,,241.4902831,241.5058755,242.4891664,242.4891664,242.4891664,242.4891664,242.5057736,243.5057557,243.5057557,244.0562899,,,,,c,1,0.5435685,None,F4,1,2025-10-02_10h10.36.448,Motor sequence,,2025.1.1,60.0305315,2025-10-02 10h21.59.593147 +0530
150,v,2,2,0,v,1,1.0728964,None,,,,,0,2,2,1,244.0722166,,244.0567536,244.0722166,245.0556517,245.0556517,245.0556517,245.0556517,245.0719601,246.055607,246.055607,247.1396826,,,,,v,1,1.0728964,None,F4,1,2025-10-02_10h10.36.448,Motor sequence,,2025.1.1,60.0305315,2025-10-02 10h21.59.593147 +0530
-50,x,3,3,0,x,1,0.4067821,None,,,,,0,3,3,0,247.1555295,,247.1401404,247.1555295,248.1554546,248.1554546,248.1554546,248.1554546,248.1554546,249.1384718,249.1384718,249.5558896,,,,,x,1,0.4067821,None,F4,1,2025-10-02_10h10.36.448,Motor sequence,,2025.1.1,60.0305315,2025-10-02 10h21.59.593147 +0530
50,c,4,4,2,c,1,0.6177828,None,,,,,2,4,4,2,249.5719383,,249.5563895,249.5719383,250.5552114,250.5552114,250.5552114,250.5552114,250.5718479,251.5552575,251.5552575,252.1889644,,,,,c,1,0.6177828,None,F4,1,2025-10-02_10h10.36.448,Motor sequence,,2025.1.1,60.0305315,2025-10-02 10h21.59.593147 +0530
-150,z,5,5,0,z,1,0.601806,None,,,,,0,5,5,3,252.2052371,,252.1894512,252.2052371,253.1885058,253.1885058,253.1885058,253.1885058,253.2051899,254.1884633,254.1884633,254.8056083,,,,,z,1,0.601806,None,F4,1,2025-10-02_10h10.36.448,Motor sequence,,2025.1.1,60.0305315,2025-10-02 10h21.59.593147 +0530
-150,z,6,6,1,z,1,0.5328192,None,,,,,1,6,6,3,254.8215355,,254.8061819,254.8215355,255.8050081,255.8050081,255.8050081,255.8050081,255.8215846,256.8049546,256.8049546,257.3384352,,,,,z,1,0.5328192,None,F4,1,2025-10-02_10h10.36.448,Motor sequence,,2025.1.1,60.0305315,2025-10-02 10h21.59.593147 +0530
50,c,7,7,3,c,1,0.6674775,None,,,,,3,7,7,2,257.3548542,,257.3388883,257.3548542,258.3379608,258.3379608,258.3379608,258.3379608,258.3546465,259.3381357,259.3381357,260.0217926,,,,,c,1,0.6674775,None,F4,1,2025-10-02_10h10.36.448,Motor sequence,,2025.1.1,60.0305315,2025-10-02 10h21.59.593147 +0530
-150,z,8,8,2,z,1,0.7823963,None,,,,,2,8,8,3,260.0380935,,260.0222576,260.0380935,261.0212862,261.0212862,261.0212862,261.0212862,261.0380502,262.0212581,262.0212581,262.8051485,,,,,z,1,0.7823963,None,F4,1,2025-10-02_10h10.36.448,Motor sequence,,2025.1.1,60.0305315,2025-10-02 10h21.59.593147 +0530
50,c,9,9,4,c,1,0.7024016,None,,,,,4,9,9,2,262.8211702,,262.805598,262.8211702,263.804536,263.804536,263.804536,263.804536,263.8210403,264.8042497,264.8042497,265.5215731,,,,,c,1,0.7024016,None,F4,1,2025-10-02_10h10.36.448,Motor sequence,,2025.1.1,60.0305315,2025-10-02 10h21.59.593147 +0530
50,c,10,10,5,c,1,0.4983966,None,,,,,5,10,10,2,265.5376261,,265.5221053,265.5376261,266.5209703,266.5209703,266.5209703,266.5209703,266.5376781,267.5208987,267.5208987,268.0214693,,,,,c,1,0.4983966,None,F4,1,2025-10-02_10h10.36.448,Motor sequence,,2025.1.1,60.0305315,2025-10-02 10h21.59.593147 +0530
-50,x,11,11,1,x,1,0.8214684,None,,,,,1,11,11,0,268.0374077,,268.0219336,268.0374077,269.020778,269.020778,269.020778,269.020778,269.0372632,270.020737,270.020737,270.8546742,,,,,x,1,0.8214684,None,F4,1,2025-10-02_10h10.36.448,Motor sequence,,2025.1.1,60.0305315,2025-10-02 10h21.59.593147 +0530
-150,z,12,12,3,z,1,0.7420215,None,,,,,3,12,12,3,270.8706737,,270.8551276,270.8706737,271.854183,271.854183,271.854183,271.854183,271.8703998,272.8539727,272.8539727,273.6043816,,,,,z,1,0.7420215,None,F4,1,2025-10-02_10h10.36.448,Motor sequence,,2025.1.1,60.0305315,2025-10-02 10h21.59.593147 +0530
50,c,13,13,6,c,1,0.5408805,None,,,,,6,13,13,2,273.6205219,,273.6048284,273.6205219,274.6036159,274.6036159,274.6036159,274.6036159,274.6203521,275.6036911,275.6036911,276.1541092,,,,,c,1,0.5408805,None,F4,1,2025-10-02_10h10.36.448,Motor sequence,,2025.1.1,60.0305315,2025-10-02 10h21.59.593147 +0530
-50,x,14,14,2,x,1,0.8172849,None,,,,,2,14,14,0,276.1701564,,276.1545733,276.1701564,277.1537802,277.1537802,277.1537802,277.1537802,277.1699496,278.1536946,278.1536946,278.9874093,,,,,x,1,0.8172849,None,F4,1,2025-10-02_10h10.36.448,Motor sequence,,2025.1.1,60.0305315,2025-10-02 10h21.59.593147 +0530
150,v,15,15,1,v,1,0.8261146,None,,,,,1,15,15,1,279.0035227,,278.9879129,279.0035227,279.9868532,279.9868532,279.9868532,279.9868532,280.0035204,281.003429,281.003429,281.8370742,,,,,v,1,0.8261146,None,F4,1,2025-10-02_10h10.36.448,Motor sequence,,2025.1.1,60.0305315,2025-10-02 10h21.59.593147 +0530
-50,x,16,16,3,x,1,0.815472,None,,,,,3,16,16,0,281.8533814,,281.8375798,281.8533814,282.8364822,282.8364822,282.8364822,282.8364822,282.8530463,283.8366608,283.8366608,284.6538989,,,,,x,1,0.815472,None,F4,1,2025-10-02_10h10.36.448,Motor sequence,,2025.1.1,60.0305315,2025-10-02 10h21.59.593147 +0530
50,c,17,17,7,c,1,0.4678805,None,,,,,7,17,17,2,284.6696613,,284.6543464,284.6696613,285.653122,285.653122,285.653122,285.653122,285.6698976,286.6528682,286.6528682,287.1369761,,,,,c,1,0.4678805,None,F4,1,2025-10-02_10h10.36.448,Motor sequence,,2025.1.1,60.0305315,2025-10-02 10h21.59.593147 +0530
150,v,18,18,2,v,1,0.5018137,None,,,,,2,18,18,1,287.1530811,,287.1374486,287.1530811,288.153053,288.153053,288.153053,288.153053,288.153053,289.1361419,289.1361419,289.6533157,,,,,v,1,0.5018137,None,F4,1,2025-10-02_10h10.36.448,Motor sequence,,2025.1.1,60.0305315,2025-10-02 10h21.59.593147 +0530
50,c,19,19,8,c,1,0.9587842,None,,,,,8,19,19,2,289.6692706,,289.6537695,289.6692706,290.6529006,290.6529006,290.6529006,290.6529006,290.6694202,291.6528256,291.6528256,292.6196454,,,,,c,1,0.9587842,None,F4,1,2025-10-02_10h10.36.448,Motor sequence,,2025.1.1,60.0305315,2025-10-02 10h21.59.593147 +0530
-150,z,20,20,4,z,1,0.8999418,None,,,,,4,20,20,3,292.6360083,,292.6200959,292.6360083,293.6193563,293.6193563,293.6193563,293.6193563,293.6360044,294.6192755,294.6192755,295.5362834,,,,,z,1,0.8999418,None,F4,1,2025-10-02_10h10.36.448,Motor sequence,,2025.1.1,60.0305315,2025-10-02 10h21.59.593147 +0530
-50,x,21,21,4,x,1,0.7111868,None,,,,,4,21,21,0,295.5525792,,295.5367601,295.5525792,296.5358642,296.5358642,296.5358642,296.5358642,296.5525632,297.5356816,297.5356816,298.2529271,,,,,x,1,0.7111868,None,F4,1,2025-10-02_10h10.36.448,Motor sequence,,2025.1.1,60.0305315,2025-10-02 10h21.59.593147 +0530
-150,z,22,22,5,z,1,0.538428,None,,,,,5,22,22,3,298.2689756,,298.2533788,298.2689756,299.2521681,299.2521681,299.2521681,299.2521681,299.2689832,300.2521757,300.2521757,300.8028491,,,,,z,1,0.538428,None,F4,1,2025-10-02_10h10.36.448,Motor sequence,,2025.1.1,60.0305315,2025-10-02 10h21.59.593147 +0530
150,v,23,23,3,v,1,0.5964701,None,,,,,3,23,23,1,300.8186686,,300.8036323,300.8186686,301.8022397,301.8022397,301.8022397,301.8022397,301.8188147,302.8021777,302.8021777,303.4024289,,,,,v,1,0.5964701,None,F4,1,2025-10-02_10h10.36.448,Motor sequence,,2025.1.1,60.0305315,2025-10-02 10h21.59.593147 +0530
-150,z,24,24,6,z,1,0.5184528,None,,,,,6,24,24,3,303.4185361,,303.4028935,303.4185361,304.4019838,304.4019838,304.4019838,304.4019838,304.4186354,305.4019309,305.4019309,305.9356858,,,,,z,1,0.5184528,None,F4,1,2025-10-02_10h10.36.448,Motor sequence,,2025.1.1,60.0305315,2025-10-02 10h21.59.593147 +0530
150,v,25,25,4,v,1,0.5929848,None,,,,,4,25,25,1,305.9519565,,305.9361384,305.9519565,306.935241,306.935241,306.935241,306.935241,306.9519318,307.9352084,307.9352084,308.5357238,,,,,v,1,0.5929848,None,F4,1,2025-10-02_10h10.36.448,Motor sequence,,2025.1.1,60.0305315,2025-10-02 10h21.59.593147 +0530
-150,z,26,26,7,z,1,0.461477,None,,,,,7,26,26,3,308.5517874,,308.5362355,308.5517874,309.5350824,309.5350824,309.5350824,309.5350824,309.5516223,310.5349493,310.5349493,311.0022176,,,,,z,1,0.461477,None,F4,1,2025-10-02_10h10.36.448,Motor sequence,,2025.1.1,60.0305315,2025-10-02 10h21.59.593147 +0530
150,v,27,27,5,v,1,0.5303228,None,,,,,5,27,27,1,311.0182356,,311.0026757,311.0182356,312.00163,312.00163,312.00163,312.00163,312.0181953,313.0180373,313.0180373,313.5520109,,,,,v,1,0.5303228,None,F4,1,2025-10-02_10h10.36.448,Motor sequence,,2025.1.1,60.0305315,2025-10-02 10h21.59.593147 +0530
-150,z,28,28,8,z,1,0.9405846,None,,,,,8,28,28,3,313.5681599,,313.5524589,313.5681599,314.5513088,314.5513088,314.5513088,314.5513088,314.5679956,315.551408,315.551408,316.5016776,,,,,z,1,0.9405846,None,F4,1,2025-10-02_10h10.36.448,Motor sequence,,2025.1.1,60.0305315,2025-10-02 10h21.59.593147 +0530
150,v,29,29,6,v,1,0.492673,None,,,,,6,29,29,1,316.5178206,,316.5021302,316.5178206,317.50121,317.50121,317.50121,317.50121,317.5178645,318.5012308,318.5012308,319.0017643,,,,,v,1,0.492673,None,F4,1,2025-10-02_10h10.36.448,Motor sequence,,2025.1.1,60.0305315,2025-10-02 10h21.59.593147 +0530
-50,x,30,30,5,x,1,0.6106017,None,,,,,5,30,30,0,319.0174305,,319.0022196,319.0174305,320.0010899,320.0010899,320.0010899,320.0010899,320.0176805,321.0010703,321.0010703,321.6181032,,,,,x,1,0.6106017,None,F4,1,2025-10-02_10h10.36.448,Motor sequence,,2025.1.1,60.0305315,2025-10-02 10h21.59.593147 +0530
-50,x,31,31,6,x,1,0.5073844,None,,,,,6,31,31,0,321.6342311,,321.6185551,321.6342311,322.6174781,322.6174781,322.6174781,322.6174781,322.6342833,323.6175102,323.6175102,324.1347033,,,,,x,1,0.5073844,None,F4,1,2025-10-02_10h10.36.448,Motor sequence,,2025.1.1,60.0305315,2025-10-02 10h21.59.593147 +0530
150,v,32,32,7,v,1,0.6677993,None,,,,,7,32,32,1,324.1507702,,324.1351495,324.1507702,325.1340476,325.1340476,325.1340476,325.1340476,325.1504175,326.1340762,326.1340762,326.8178146,,,,,v,1,0.6677993,None,F4,1,2025-10-02_10h10.36.448,Motor sequence,,2025.1.1,60.0305315,2025-10-02 10h21.59.593147 +0530
-150,z,33,33,9,z,1,0.5474047,None,,,,,9,33,33,3,326.833921,,326.8182915,326.833921,327.8171276,327.8171276,327.8171276,327.8171276,327.8340816,328.8171877,328.8171877,329.3676909,,,,,z,1,0.5474047,None,F4,1,2025-10-02_10h10.36.448,Motor sequence,,2025.1.1,60.0305315,2025-10-02 10h21.59.593147 +0530
-50,x,34,34,7,x,1,0.4557454,None,,,,,7,34,34,0,329.3836098,,329.368259,329.3836098,330.3671124,330.3671124,330.3671124,330.3671124,330.3837773,331.3668469,331.3668469,331.8342864,,,,,x,1,0.4557454,None,F4,1,2025-10-02_10h10.36.448,Motor sequence,,2025.1.1,60.0305315,2025-10-02 10h21.59.593147 +0530
150,v,35,35,8,v,1,0.6119256,None,,,,,8,35,35,1,331.8503892,,331.8347846,331.8503892,332.8336749,332.8336749,332.8336749,332.8336749,332.8503224,333.8335074,333.8335074,334.4506784,,,,,v,1,0.6119256,None,F4,1,2025-10-02_10h10.36.448,Motor sequence,,2025.1.1,60.0305315,2025-10-02 10h21.59.593147 +0530
50,c,36,36,9,c,1,0.7135007,None,,,,,9,36,36,2,334.4668496,,334.451179,334.4668496,335.4662677,335.4662677,335.4662677,335.4662677,335.4662677,336.4501254,336.4501254,337.1673453,,,,,c,1,0.7135007,None,F4,1,2025-10-02_10h10.36.448,Motor sequence,,2025.1.1,60.0305315,2025-10-02 10h21.59.593147 +0530
150,v,37,37,9,v,1,0.7094211,None,,,,,9,37,37,1,337.1834324,,337.1677925,337.1834324,338.1666415,338.1666415,338.1666415,338.1666415,338.1833982,339.1665426,339.1665426,339.8837839,,,,,v,1,0.7094211,None,F4,1,2025-10-02_10h10.36.448,Motor sequence,,2025.1.1,60.0305315,2025-10-02 10h21.59.593147 +0530
-50,x,38,38,8,x,1,0.5698211,None,,,,,8,38,38,0,339.8998789,,339.8842454,339.8998789,340.8832289,340.8832289,340.8832289,340.8832289,340.8998292,341.883145,341.883145,342.4666807,,,,,x,1,0.5698211,None,F4,1,2025-10-02_10h10.36.448,Motor sequence,,2025.1.1,60.0305315,2025-10-02 10h21.59.593147 +0530
-150,z,39,39,10,z,1,0.726055,None,,,,,10,39,39,3,342.4828649,,342.4671283,342.4828649,343.4664017,343.4664017,343.4664017,343.4664017,343.4827778,344.4661191,344.4661191,345.2000587,,,,,z,1,0.726055,None,F4,1,2025-10-02_10h10.36.448,Motor sequence,,2025.1.1,60.0305315,2025-10-02 10h21.59.593147 +0530
-150,z,40,40,11,z,1,0.5593518,None,,,,,11,40,40,3,345.2162362,,345.2005178,345.2162362,346.1995527,346.1995527,346.1995527,346.1995527,346.2159933,347.1993903,347.1993903,347.7665614,,,,,z,1,0.5593518,None,F4,1,2025-10-02_10h10.36.448,Motor sequence,,2025.1.1,60.0305315,2025-10-02 10h21.59.593147 +0530
50,c,41,41,10,c,1,0.8904542,None,,,,,10,41,41,2,347.7824975,,347.767061,347.7824975,348.7658525,348.7658525,348.7658525,348.7658525,348.7824844,349.7658996,349.7658996,350.6666075,,,,,c,1,0.8904542,None,F4,1,2025-10-02_10h10.36.448,Motor sequence,,2025.1.1,60.0305315,2025-10-02 10h21.59.593147 +0530
150,v,43,43,10,v,1,0.5596397,None,,,,,10,43,43,1,353.3989758,,353.3836006,353.3989758,354.3986489,354.3986489,354.3986489,354.3986489,354.3986489,355.382321,355.382321,355.9495059,,,,,v,1,0.5596397,None,F4,1,2025-10-02_10h10.36.448,Motor sequence,,2025.1.1,60.0305315,2025-10-02 10h21.59.593147 +0530
50,c,44,44,11,c,1,0.5604015,None,,,,,11,44,44,2,355.9655285,,355.9499504,355.9655285,356.948758,356.948758,356.948758,356.948758,356.9651471,357.948563,357.948563,358.515908,,,,,c,1,0.5604015,None,F4,1,2025-10-02_10h10.36.448,Motor sequence,,2025.1.1,60.0305315,2025-10-02 10h21.59.593147 +0530
-150,z,45,45,12,z,1,0.4567456,None,,,,,12,45,45,3,358.531873,,358.5163615,358.531873,359.5152482,359.5152482,359.5152482,359.5152482,359.5316987,360.5151889,360.5151889,360.9824407,,,,,z,1,0.4567456,None,F4,1,2025-10-02_10h10.36.448,Motor sequence,,2025.1.1,60.0305315,2025-10-02 10h21.59.593147 +0530
-50,x,46,46,10,x,1,0.687103,None,,,,,10,46,46,0,360.9984657,,360.9829093,360.9984657,361.9818722,361.9818722,361.9818722,361.9818722,361.9985803,362.9817318,362.9817318,363.6822756,,,,,x,1,0.687103,None,F4,1,2025-10-02_10h10.36.448,Motor sequence,,2025.1.1,60.0305315,2025-10-02 10h21.59.593147 +0530
50,c,47,47,12,c,1,0.4904035,None,,,,,12,47,47,2,363.6984349,,363.6827359,363.6984349,364.6817387,364.6817387,364.6817387,364.6817387,364.6984491,365.6817339,365.6817339,366.1822064,,,,,c,1,0.4904035,None,F4,1,2025-10-02_10h10.36.448,Motor sequence,,2025.1.1,60.0305315,2025-10-02 10h21.59.593147 +0530
-50,x,48,48,11,x,1,0.5882828,None,,,,,11,48,48,0,366.1983032,,366.1826552,366.1983032,367.1813786,367.1813786,367.1813786,367.1813786,367.198072,368.1813794,368.1813794,368.7820463,,,,,x,1,0.5882828,None,F4,1,2025-10-02_10h10.36.448,Motor sequence,,2025.1.1,60.0305315,2025-10-02 10h21.59.593147 +0530
150,v,49,49,11,v,1,0.7684313,None,,,,,11,49,49,1,368.7979052,,368.782502,368.7979052,369.7812482,369.7812482,369.7812482,369.7812482,369.7981031,370.798095,370.798095,371.5819017,,,,,v,1,0.7684313,None,F4,1,2025-10-02_10h10.36.448,Motor sequence,,2025.1.1,60.0305315,2025-10-02 10h21.59.593147 +0530
50,c,50,50,13,c,1,0.6124194,None,,,,,13,50,50,2,371.5979549,,371.5823492,371.5979549,372.5810154,372.5810154,372.5810154,372.5810154,372.5979723,373.5979795,373.5979795,374.2146725,,,,,c,1,0.6124194,None,F4,1,2025-10-02_10h10.36.448,Motor sequence,,2025.1.1,60.0305315,2025-10-02 10h21.59.593147 +0530
150,v,51,51,12,v,1,0.727689,None,,,,,12,51,51,1,374.2310167,,374.2151223,374.2310167,375.2144345,375.2144345,375.2144345,375.2144345,375.2312184,376.214047,376.214047,376.9481767,,,,,v,1,0.727689,None,F4,1,2025-10-02_10h10.36.448,Motor sequence,,2025.1.1,60.0305315,2025-10-02 10h21.59.593147 +0530
-150,z,52,52,13,z,1,0.5424485,None,,,,,13,52,52,3,376.9642515,,376.9486356,376.9642515,377.9473926,377.9473926,377.9473926,377.9473926,377.9639382,378.9474521,378.9474521,379.4981161,,,,,z,1,0.5424485,None,F4,1,2025-10-02_10h10.36.448,Motor sequence,,2025.1.1,60.0305315,2025-10-02 10h21.59.593147 +0530
150,v,53,53,13,v,1,0.4646919,None,,,,,13,53,53,1,379.5140125,,379.498573,379.5140125,380.49733,380.49733,380.49733,380.49733,380.5139883,381.4973415,381.4973415,381.964387,,,,,v,1,0.4646919,None,F4,1,2025-10-02_10h10.36.448,Motor sequence,,2025.1.1,60.0305315,2025-10-02 10h21.59.593147 +0530
150,v,54,54,14,v,1,0.5307992,None,,,,,14,54,54,1,381.9805995,,381.9649261,381.9805995,382.9639073,382.9639073,382.9639073,382.9639073,382.980434,383.9638688,383.9638688,384.4976651,,,,,v,1,0.5307992,None,F4,1,2025-10-02_10h10.36.448,Motor sequence,,2025.1.1,60.0305315,2025-10-02 10h21.59.593147 +0530
-50,x,55,55,12,x,1,1.0565364,None,,,,,12,55,55,0,384.5135383,,384.4981128,384.5135383,385.4968895,385.4968895,385.4968895,385.4968895,385.5136256,386.4969597,386.4969597,387.5641091,,,,,x,1,1.0565364,None,F4,1,2025-10-02_10h10.36.448,Motor sequence,,2025.1.1,60.0305315,2025-10-02 10h21.59.593147 +0530
-150,z,56,56,14,z,1,0.6172105,None,,,,,14,56,56,3,387.5803009,,387.5646257,387.5803009,388.5634653,388.5634653,388.5634653,388.5634653,388.5801634,389.5632882,389.5632882,390.1972936,,,,,z,1,0.6172105,None,F4,1,2025-10-02_10h10.36.448,Motor sequence,,2025.1.1,60.0305315,2025-10-02 10h21.59.593147 +0530
-150,z,57,57,15,z,1,0.4660999,None,,,,,15,57,57,3,390.2132591,,390.1977596,390.2132591,391.1965971,391.1965971,391.1965971,391.1965971,391.2130932,392.1967577,392.1967577,392.6635532,,,,,z,1,0.4660999,None,F4,1,2025-10-02_10h10.36.448,Motor sequence,,2025.1.1,60.0305315,2025-10-02 10h21.59.593147 +0530
-50,x,58,58,13,x,1,0.3878203,None,,,,,13,58,58,0,392.6799189,,392.6640461,392.6799189,393.6631611,393.6631611,393.6631611,393.6631611,393.6800473,394.6633346,394.6633346,395.0634537,,,,,x,1,0.3878203,None,F4,1,2025-10-02_10h10.36.448,Motor sequence,,2025.1.1,60.0305315,2025-10-02 10h21.59.593147 +0530
50,c,59,59,14,c,1,0.6299649,None,,,,,14,59,59,2,395.0798419,,395.0639164,395.0798419,396.0630729,396.0630729,396.0630729,396.0630729,396.0798402,397.063049,397.063049,397.6969701,,,,,c,1,0.6299649,None,F4,1,2025-10-02_10h10.36.448,Motor sequence,,2025.1.1,60.0305315,2025-10-02 10h21.59.593147 +0530
-50,x,60,60,14,x,1,0.444964,None,,,,,14,60,60,0,397.7129846,,397.6974226,397.7129846,398.6963415,398.6963415,398.6963415,398.6963415,398.7129965,399.6961447,399.6961447,400.1467833,,,,,x,1,0.444964,None,F4,1,2025-10-02_10h10.36.448,Motor sequence,,2025.1.1,60.0305315,2025-10-02 10h21.59.593147 +0530
-150,z,61,61,16,z,1,0.5521293,None,,,,,16,61,61,3,400.1625781,,400.1472338,400.1625781,401.1462809,401.1462809,401.1462809,401.1462809,401.1626889,402.1459482,402.1459482,402.713226,,,,,z,1,0.5521293,None,F4,1,2025-10-02_10h10.36.448,Motor sequence,,2025.1.1,60.0305315,2025-10-02 10h21.59.593147 +0530
150,v,62,62,15,v,1,0.4679891,None,,,,,15,62,62,1,402.729121,,402.7136873,402.729121,403.7123977,403.7123977,403.7123977,403.7123977,403.7293772,404.7123534,404.7123534,405.1964532,,,,,v,1,0.4679891,None,F4,1,2025-10-02_10h10.36.448,Motor sequence,,2025.1.1,60.0305315,2025-10-02 10h21.59.593147 +0530
150,v,63,63,16,v,1,0.4022084,None,,,,,16,63,63,1,405.2125484,,405.1968978,405.2125484,406.1956434,406.1956434,406.1956434,406.1956434,406.2124713,407.1955905,407.1955905,407.6129943,,,,,v,1,0.4022084,None,F4,1,2025-10-02_10h10.36.448,Motor sequence,,2025.1.1,60.0305315,2025-10-02 10h21.59.593147 +0530
-50,x,64,64,15,x,1,0.5631376,None,,,,,15,64,64,0,407.6291383,,407.6134419,407.6291383,408.6124479,408.6124479,408.6124479,408.6124479,408.6288785,409.6121897,409.6121897,410.1793083,,,,,x,1,0.5631376,None,F4,1,2025-10-02_10h10.36.448,Motor sequence,,2025.1.1,60.0305315,2025-10-02 10h21.59.593147 +0530
50,c,65,65,15,c,1,0.3336434,None,,,,,15,65,65,2,410.195556,,410.1797576,410.195556,411.1788638,411.1788638,411.1788638,411.1788638,411.1955114,412.1789169,412.1789169,412.5294613,,,,,c,1,0.3336434,None,F4,1,2025-10-02_10h10.36.448,Motor sequence,,2025.1.1,60.0305315,2025-10-02 10h21.59.593147 +0530
-150,z,66,66,17,z,1,0.4666141,None,,,,,17,66,66,3,412.5450829,,412.5300491,412.5450829,413.5287568,413.5287568,413.5287568,413.5287568,413.5453804,414.5286114,414.5286114,415.0123642,,,,,z,1,0.4666141,None,F4,1,2025-10-02_10h10.36.448,Motor sequence,,2025.1.1,60.0305315,2025-10-02 10h21.59.593147 +0530
-50,x,67,67,16,x,1,0.9574721,None,,,,,16,67,67,0,415.0284284,,415.0128199,415.0284284,416.0116322,416.0116322,416.0116322,416.0116322,416.0284292,417.0115745,417.0115745,417.9788154,,,,,x,1,0.9574721,None,F4,1,2025-10-02_10h10.36.448,Motor sequence,,2025.1.1,60.0305315,2025-10-02 10h21.59.593147 +0530
-50,x,68,68,17,x,1,0.4381949,None,,,,,17,68,68,0,417.9949517,,417.9792731,417.9949517,418.9781887,418.9781887,418.9781887,418.9781887,418.9950704,419.9784116,419.9784116,420.4289356,,,,,x,1,0.4381949,None,F4,1,2025-10-02_10h10.36.448,Motor sequence,,2025.1.1,60.0305315,2025-10-02 10h21.59.593147 +0530
150,v,69,69,17,v,1,0.6911085,None,,,,,17,69,69,1,420.4447036,,420.4294598,420.4447036,421.428304,421.428304,421.428304,421.428304,421.4449697,422.4282258,422.4282258,423.1286721,,,,,v,1,0.6911085,None,F4,1,2025-10-02_10h10.36.448,Motor sequence,,2025.1.1,60.0305315,2025-10-02 10h21.59.593147 +0530
-150,z,70,70,18,z,1,0.5589046,None,,,,,18,70,70,3,423.144545,,423.1292988,423.144545,424.1280366,424.1280366,424.1280366,424.1280366,424.1447799,425.1280851,425.1280851,425.6951326,,,,,z,1,0.5589046,None,F4,1,2025-10-02_10h10.36.448,Motor sequence,,2025.1.1,60.0305315,2025-10-02 10h21.59.593147 +0530
-150,z,71,71,19,z,1,0.5853052,None,,,,,19,71,71,3,425.711323,,425.6955687,425.711323,426.6946682,426.6946682,426.6946682,426.6946682,426.7112627,427.6945809,427.6945809,428.2951288,,,,,z,1,0.5853052,None,F4,1,2025-10-02_10h10.36.448,Motor sequence,,2025.1.1,60.0305315,2025-10-02 10h21.59.593147 +0530
-50,x,72,72,18,x,1,0.5279656,None,,,,,18,72,72,0,428.311141,,428.2956262,428.311141,429.3107064,429.3107064,429.3107064,429.3107064,429.3107064,430.2942704,430.2942704,430.8282666,,,,,x,1,0.5279656,None,F4,1,2025-10-02_10h10.36.448,Motor sequence,,2025.1.1,60.0305315,2025-10-02 10h21.59.593147 +0530
50,c,73,73,16,c,1,0.6668188,None,,,,,16,73,73,2,430.8442358,,430.828841,430.8442358,431.8276806,431.8276806,431.8276806,431.8276806,431.8440935,432.8274558,432.8274558,433.5113972,,,,,c,1,0.6668188,None,F4,1,2025-10-02_10h10.36.448,Motor sequence,,2025.1.1,60.0305315,2025-10-02 10h21.59.593147 +0530
-50,x,74,74,19,x,1,0.8468587,None,,,,,19,74,74,0,433.5275274,,433.5119243,433.5275274,434.5107679,434.5107679,434.5107679,434.5107679,434.5275041,435.5107251,435.5107251,436.3612167,,,,,x,1,0.8468587,None,F4,1,2025-10-02_10h10.36.448,Motor sequence,,2025.1.1,60.0305315,2025-10-02 10h21.59.593147 +0530
-50,x,75,75,20,x,1,0.5238628,None,,,,,20,75,75,0,436.3773499,,436.3617347,436.3773499,437.3606304,437.3606304,437.3606304,437.3606304,437.3773362,438.3605681,438.3605681,438.8943975,,,,,x,1,0.5238628,None,F4,1,2025-10-02_10h10.36.448,Motor sequence,,2025.1.1,60.0305315,2025-10-02 10h21.59.593147 +0530
50,c,76,76,17,c,1,0.5591118,None,,,,,17,76,76,2,438.9104127,,438.8948521,438.9104127,439.8938656,439.8938656,439.8938656,439.8938656,439.9103897,440.8937046,440.8937046,441.4607578,,,,,c,1,0.5591118,None,F4,1,2025-10-02_10h10.36.448,Motor sequence,,2025.1.1,60.0305315,2025-10-02 10h21.59.593147 +0530
-150,z,77,77,20,z,1,0.9303912,None,,,,,20,77,77,3,441.4769467,,441.4612343,441.4769467,442.4603015,442.4603015,442.4603015,442.4603015,442.4769773,443.4602479,443.4602479,444.3942306,,,,,z,1,0.9303912,None,F4,1,2025-10-02_10h10.36.448,Motor sequence,,2025.1.1,60.0305315,2025-10-02 10h21.59.593147 +0530
-150,z,78,78,21,z,1,0.4645104,None,,,,,21,78,78,3,444.4098908,,444.3946927,444.4098908,445.3933549,445.3933549,445.3933549,445.3933549,445.4101264,446.3932025,446.3932025,446.8603279,,,,,z,1,0.4645104,None,F4,1,2025-10-02_10h10.36.448,Motor sequence,,2025.1.1,60.0305315,2025-10-02 10h21.59.593147 +0530
-150,z,79,79,22,z,1,0.7261041,None,,,,,22,79,79,3,446.8767159,,446.8608263,446.8767159,447.8596779,447.8596779,447.8596779,447.8596779,447.8766877,448.8599107,448.8599107,449.5937296,,,,,z,1,0.7261041,None,F4,1,2025-10-02_10h10.36.448,Motor sequence,,2025.1.1,60.0305315,2025-10-02 10h21.59.593147 +0530
-150,z,80,80,23,z,1,0.6151282,None,,,,,23,80,80,3,449.6098508,,449.5941898,449.6098508,450.5930007,450.5930007,450.5930007,450.5930007,450.6096325,451.5931394,451.5931394,452.2102532,,,,,z,1,0.6151282,None,F4,1,2025-10-02_10h10.36.448,Motor sequence,,2025.1.1,60.0305315,2025-10-02 10h21.59.593147 +0530
50,c,81,81,18,c,1,2.0230212,None,,,,,18,81,81,2,452.2264276,,452.2107112,452.2264276,453.2095438,453.2095438,453.2095438,453.2095438,453.2263945,454.2096169,454.2096169,456.2434253,,,,,c,1,2.0230212,None,F4,1,2025-10-02_10h10.36.448,Motor sequence,,2025.1.1,60.0305315,2025-10-02 10h21.59.593147 +0530
150,v,82,82,18,v,1,0.4631613,None,,,,,18,82,82,1,456.2592479,,456.2438897,456.2592479,457.2427301,457.2427301,457.2427301,457.2427301,457.2592988,458.2427447,458.2427447,458.7097009,,,,,v,1,0.4631613,None,F4,1,2025-10-02_10h10.36.448,Motor sequence,,2025.1.1,60.0305315,2025-10-02 10h21.59.593147 +0530
50,c,83,83,19,c,1,0.763584,None,,,,,19,83,83,2,458.7259595,,458.7101608,458.7259595,459.7092845,459.7092845,459.7092845,459.7092845,459.7258343,460.7091214,460.7091214,461.4764528,,,,,c,1,0.763584,None,F4,1,2025-10-02_10h10.36.448,Motor sequence,,2025.1.1,60.0305315,2025-10-02 10h21.59.593147 +0530
150,v,84,84,19,v,1,0.449676,None,,,,,19,84,84,1,461.4924149,,461.4769001,461.4924149,462.4758023,462.4758023,462.4758023,462.4758023,462.4924855,463.4757524,463.4757524,463.9263226,,,,,v,1,0.449676,None,F4,1,2025-10-02_10h10.36.448,Motor sequence,,2025.1.1,60.0305315,2025-10-02 10h21.59.593147 +0530
50,c,85,85,20,c,1,0.8428063,None,,,,,20,85,85,2,463.9420736,,463.9268461,463.9420736,464.9255327,464.9255327,464.9255327,464.9255327,464.942335,465.9256131,465.9256131,466.7760206,,,,,c,1,0.8428063,None,F4,1,2025-10-02_10h10.36.448,Motor sequence,,2025.1.1,60.0305315,2025-10-02 10h21.59.593147 +0530
-50,x,86,86,21,x,1,0.6415892,None,,,,,21,86,86,0,466.7920922,,466.7764761,466.7920922,467.7753728,467.7753728,467.7753728,467.7753728,467.7921649,468.7753628,468.7753628,469.4258145,,,,,x,1,0.6415892,None,F4,1,2025-10-02_10h10.36.448,Motor sequence,,2025.1.1,60.0305315,2025-10-02 10h21.59.593147 +0530
150,v,87,87,20,v,1,0.6786664,None,,,,,20,87,87,1,469.4420374,,469.4262749,469.4420374,470.4253484,470.4253484,470.4253484,470.4253484,470.4420024,471.4252968,471.4252968,472.1088216,,,,,v,1,0.6786664,None,F4,1,2025-10-02_10h10.36.448,Motor sequence,,2025.1.1,60.0305315,2025-10-02 10h21.59.593147 +0530
50,c,88,88,21,c,1,0.4738437,None,,,,,21,88,88,2,472.1249518,,472.1092788,472.1249518,473.1085253,473.1085253,473.1085253,473.1085253,473.1251026,474.1084211,474.1084211,474.5921188,,,,,c,1,0.4738437,None,F4,1,2025-10-02_10h10.36.448,Motor sequence,,2025.1.1,60.0305315,2025-10-02 10h21.59.593147 +0530
-50,x,89,89,22,x,1,0.6482156,None,,,,,22,89,89,0,474.6082841,,474.5925932,474.6082841,475.5914363,475.5914363,475.5914363,475.5914363,475.608158,476.5914156,476.5914156,477.2418786,,,,,x,1,0.6482156,None,F4,1,2025-10-02_10h10.36.448,Motor sequence,,2025.1.1,60.0305315,2025-10-02 10h21.59.593147 +0530
50,c,90,90,22,c,1,0.615505,None,,,,,22,90,90,2,477.2579727,,477.2423273,477.2579727,478.2415591,478.2415591,478.2415591,478.2415591,478.2582349,479.2414577,479.2414577,479.8584955,,,,,c,1,0.615505,None,F4,1,2025-10-02_10h10.36.448,Motor sequence,,2025.1.1,60.0305315,2025-10-02 10h21.59.593147 +0530
150,v,91,91,21,v,1,0.5772314,None,,,,,21,91,91,1,479.8746992,,479.8589417,479.8746992,480.8577473,480.8577473,480.8577473,480.8577473,480.8746021,481.8576273,481.8576273,482.4416658,,,,,v,1,0.5772314,None,F4,1,2025-10-02_10h10.36.448,Motor sequence,,2025.1.1,60.0305315,2025-10-02 10h21.59.593147 +0530
150,v,92,92,22,v,1,0.5925253,None,,,,,22,92,92,1,482.4577003,,482.4421618,482.4577003,483.4411469,483.4411469,483.4411469,483.4411469,483.4577895,484.4411215,484.4411215,485.0414444,,,,,v,1,0.5925253,None,F4,1,2025-10-02_10h10.36.448,Motor sequence,,2025.1.1,60.0305315,2025-10-02 10h21.59.593147 +0530
50,c,93,93,23,c,1,0.5694366,None,,,,,23,93,93,2,485.0576716,,485.0419319,485.0576716,486.0409201,486.0409201,486.0409201,486.0409201,486.057649,487.0407784,487.0407784,487.6245856,,,,,c,1,0.5694366,None,F4,1,2025-10-02_10h10.36.448,Motor sequence,,2025.1.1,60.0305315,2025-10-02 10h21.59.593147 +0530
-150,z,94,94,24,z,1,0.6489547,None,,,,,24,94,94,3,487.6408255,,487.6250485,487.6408255,488.6242267,488.6242267,488.6242267,488.6242267,488.6408576,489.6240801,489.6240801,490.2744573,,,,,z,1,0.6489547,None,F4,1,2025-10-02_10h10.36.448,Motor sequence,,2025.1.1,60.0305315,2025-10-02 10h21.59.593147 +0530
50,c,95,95,24,c,1,0.3967607,None,,,,,24,95,95,2,490.290625,,490.2749173,490.290625,491.2739944,491.2739944,491.2739944,491.2739944,491.2905738,492.2739836,492.2739836,492.674403,,,,,c,1,0.3967607,None,F4,1,2025-10-02_10h10.36.448,Motor sequence,,2025.1.1,60.0305315,2025-10-02 10h21.59.593147 +0530
150,v,96,96,23,v,1,0.4900954,None,,,,,23,96,96,1,492.6903869,,492.6748616,492.6903869,493.6738202,493.6738202,493.6738202,493.6738202,493.6905362,494.6739465,494.6739465,495.1743394,,,,,v,1,0.4900954,None,F4,1,2025-10-02_10h10.36.448,Motor sequence,,2025.1.1,60.0305315,2025-10-02 10h21.59.593147 +0530
150,v,97,97,24,v,1,0.3968025,None,,,,,24,97,97,1,495.1902089,,495.1748124,495.1902089,496.1737631,496.1737631,496.1737631,496.1737631,496.1902396,497.1737353,497.1737353,497.5743242,,,,,v,1,0.3968025,None,F4,1,2025-10-02_10h10.36.448,Motor sequence,,2025.1.1,60.0305315,2025-10-02 10h21.59.593147 +0530
-50,x,98,98,23,x,1,0.7108132,None,,,,,23,98,98,0,497.5902165,,497.5747886,497.5902165,498.5733639,498.5733639,498.5733639,498.5733639,498.5903146,499.5733539,499.5733539,500.290808,,,,,x,1,0.7108132,None,F4,1,2025-10-02_10h10.36.448,Motor sequence,,2025.1.1,60.0305315,2025-10-02 10h21.59.593147 +0530
-50,x,99,99,24,x,1,0.4541221,None,,,,,24,99,99,0,500.3066633,,500.2912704,500.3066633,501.2900965,501.2900965,501.2900965,501.2900965,501.3067494,502.306466,502.306466,502.7738345,,,,,x,1,0.4541221,None,F4,1,2025-10-02_10h10.36.448,Motor sequence,,2025.1.1,60.0305315,2025-10-02 10h21.59.593147 +0530
