pos,corr_resp,thisN,thisTrialN,thisRepN,key_resp.keys,key_resp.corr,key_resp.rt,key_resp.duration,trials.thisRepN,trials.thisTrialN,trials.thisN,trials.thisIndex,trials_2.thisRepN,trials_2.thisTrialN,trials_2.thisN,trials_2.thisIndex,thisRow.t,notes,trial.started,fixtion.started,line1.started,line2.started,line3.started,line4.started,fixtion.stopped,probe.started,key_resp.started,trial.stopped,trials.key_resp.keys,trials.key_resp.corr,trials.key_resp.rt,trials.key_resp.duration,trials_2.key_resp.keys,trials_2.key_resp.corr,trials_2.key_resp.rt,trials_2.key_resp.duration,participant,session,date,expName,expVersion,psychopyVersion,frameRate,expStart
-50,x,0,0,0,x,1,0.6934537,None,0,0,0,0,,,,,0.0152426,,0.0104724,0.0152426,1.0014219,1.0014219,1.0014219,1.0014219,1.01825,2.0009251,2.0009251,2.7097509,x,1,0.6934537,None,,,,,F5,1,2025-10-02_16h50.09.582,Motor sequence,,2025.1.1,60.12954309,2025-10-02 16h50.17.819326 +0530
150,v,1,1,0,v,1,0.414003,None,0,1,1,1,,,,,2.7182238,,2.7102352,2.7182238,3.7177045,3.7177045,3.7177045,3.7177045,3.7177045,4.7178004,4.7178004,5.1348952,v,1,0.414003,None,,,,,F5,1,2025-10-02_16h50.09.582,Motor sequence,,2025.1.1,60.12954309,2025-10-02 16h50.17.819326 +0530
50,c,2,2,0,c,1,1.1470176,None,0,2,2,2,,,,,5.1512293,,5.1353992,5.1512293,6.1344789,6.1344789,6.1344789,6.1344789,6.1510196,7.1342812,7.1342812,8.2851735,c,1,1.1470176,None,,,,,F5,1,2025-10-02_16h50.09.582,Motor sequence,,2025.1.1,60.12954309,2025-10-02 16h50.17.819326 +0530
-150,z,3,3,0,z,1,0.3315907,None,0,3,3,3,,,,,8.3010649,,8.2856436,8.3010649,9.2843578,9.2843578,9.2843578,9.2843578,9.300996,10.3010863,10.3010863,10.6345797,z,1,0.3315907,None,,,,,F5,1,2025-10-02_16h50.09.582,Motor sequence,,2025.1.1,60.12954309,2025-10-02 16h50.17.819326 +0530
-50,x,4,0,1,x,1,0.3466047,None,1,0,4,0,,,,,10.6508451,,10.6350334,10.6508451,11.6341076,11.6341076,11.6341076,11.6341076,11.6508983,12.6341318,12.6341318,12.9845473,x,1,0.3466047,None,,,,,F5,1,2025-10-02_16h50.09.582,Motor sequence,,2025.1.1,60.12954309,2025-10-02 16h50.17.819326 +0530
150,v,5,1,1,v,1,0.4184086,None,1,1,5,1,,,,,13.0006801,,12.984998,13.0006801,13.9839143,13.9839143,13.9839143,13.9839143,14.0007329,14.9840118,14.9840118,15.4178497,v,1,0.4184086,None,,,,,F5,1,2025-10-02_16h50.09.582,Motor sequence,,2025.1.1,60.12954309,2025-10-02 16h50.17.819326 +0530
50,c,6,2,1,c,1,0.5633399,None,1,2,6,2,,,,,15.4338144,,15.4183042,15.4338144,16.4337536,16.4337536,16.4337536,16.4337536,16.4337536,17.4170877,17.4170877,17.984298,c,1,0.5633399,None,,,,,F5,1,2025-10-02_16h50.09.582,Motor sequence,,2025.1.1,60.12954309,2025-10-02 16h50.17.819326 +0530
-150,z,7,3,1,z,1,0.4803691,None,1,3,7,3,,,,,18.0002392,,17.9847751,18.0002392,18.9835785,18.9835785,18.9835785,18.9835785,19.0004255,19.9836619,19.9836619,20.4677681,z,1,0.4803691,None,,,,,F5,1,2025-10-02_16h50.09.582,Motor sequence,,2025.1.1,60.12954309,2025-10-02 16h50.17.819326 +0530
-50,x,8,0,2,x,1,0.3883053,None,2,0,8,0,,,,,20.4851497,,20.4683845,20.4851497,21.4671446,21.4671446,21.4671446,21.4671446,21.5001748,22.4668594,22.4668594,22.867413,x,1,0.3883053,None,,,,,F5,1,2025-10-02_16h50.09.582,Motor sequence,,2025.1.1,60.12954309,2025-10-02 16h50.17.819326 +0530
150,v,9,1,2,v,1,0.3307699,None,2,1,9,1,,,,,22.8833132,,22.8678779,22.8833132,23.8669092,23.8669092,23.8669092,23.8669092,23.8832364,24.8668811,24.8668811,25.2008717,v,1,0.3307699,None,,,,,F5,1,2025-10-02_16h50.09.582,Motor sequence,,2025.1.1,60.12954309,2025-10-02 16h50.17.819326 +0530
50,c,10,2,2,c,1,0.2898252,None,2,2,10,2,,,,,25.2167647,,25.2013404,25.2167647,26.2004619,26.2004619,26.2004619,26.2004619,26.2165601,27.2000137,27.2000137,27.5005131,c,1,0.2898252,None,,,,,F5,1,2025-10-02_16h50.09.582,Motor sequence,,2025.1.1,60.12954309,2025-10-02 16h50.17.819326 +0530
-150,z,11,3,2,z,1,0.2521942,None,2,3,11,3,,,,,27.5165991,,27.5010264,27.5165991,28.5000891,28.5000891,28.5000891,28.5000891,28.5165226,29.4999813,29.4999813,29.76697,z,1,0.2521942,None,,,,,F5,1,2025-10-02_16h50.09.582,Motor sequence,,2025.1.1,60.12954309,2025-10-02 16h50.17.819326 +0530
-50,x,12,0,3,x,1,0.3399463,None,3,0,12,0,,,,,29.7834697,,29.767424,29.7834697,30.7666639,30.7666639,30.7666639,30.7666639,30.7826931,31.7663032,31.7663032,32.1169349,x,1,0.3399463,None,,,,,F5,1,2025-10-02_16h50.09.582,Motor sequence,,2025.1.1,60.12954309,2025-10-02 16h50.17.819326 +0530
150,v,13,1,3,v,1,0.2190708,None,3,1,13,1,,,,,32.1329416,,32.1173854,32.1329416,33.1166874,33.1166874,33.1166874,33.1166874,33.1328757,34.1329566,34.1329566,34.3669943,v,1,0.2190708,None,,,,,F5,1,2025-10-02_16h50.09.582,Motor sequence,,2025.1.1,60.12954309,2025-10-02 16h50.17.819326 +0530
50,c,14,2,3,c,1,0.2467731,None,3,2,14,2,,,,,34.3828793,,34.3674625,34.3828793,35.3666169,35.3666169,35.3666169,35.3666169,35.3826387,36.3827849,36.3827849,36.6330193,c,1,0.2467731,None,,,,,F5,1,2025-10-02_16h50.09.582,Motor sequence,,2025.1.1,60.12954309,2025-10-02 16h50.17.819326 +0530
-150,z,15,3,3,z,1,0.3646007,None,3,3,15,3,,,,,36.6496948,,36.6334702,36.6496948,37.6329343,37.6329343,37.6329343,37.6329343,37.6493367,38.6325281,38.6325281,38.9998342,z,1,0.3646007,None,,,,,F5,1,2025-10-02_16h50.09.582,Motor sequence,,2025.1.1,60.12954309,2025-10-02 16h50.17.819326 +0530
-50,x,16,0,4,x,1,0.2856432,None,4,0,16,0,,,,,39.0158188,,39.0005394,39.0158188,39.9992743,39.9992743,39.9992743,39.9992743,40.0156471,40.99927,40.99927,41.2994292,x,1,0.2856432,None,,,,,F5,1,2025-10-02_16h50.09.582,Motor sequence,,2025.1.1,60.12954309,2025-10-02 16h50.17.819326 +0530
150,v,17,1,4,v,1,0.3239432,None,4,1,17,1,,,,,41.3158722,,41.2999621,41.3158722,42.2992102,42.2992102,42.2992102,42.2992102,42.31552,43.2990064,43.2990064,43.6330161,v,1,0.3239432,None,,,,,F5,1,2025-10-02_16h50.09.582,Motor sequence,,2025.1.1,60.12954309,2025-10-02 16h50.17.819326 +0530
50,c,18,2,4,c,1,0.2616295,None,4,2,18,2,,,,,43.6491321,,43.6335352,43.6491321,44.6322188,44.6322188,44.6322188,44.6322188,44.6487326,45.6322247,45.6322247,45.8994133,c,1,0.2616295,None,,,,,F5,1,2025-10-02_16h50.09.582,Motor sequence,,2025.1.1,60.12954309,2025-10-02 16h50.17.819326 +0530
-150,z,19,3,4,z,1,0.2825449,None,4,3,19,3,,,,,45.9154591,,45.8999573,45.9154591,46.8989275,46.8989275,46.8989275,46.8989275,46.9152594,47.8988474,47.8988474,48.1992887,z,1,0.2825449,None,,,,,F5,1,2025-10-02_16h50.09.582,Motor sequence,,2025.1.1,60.12954309,2025-10-02 16h50.17.819326 +0530
-50,x,20,0,5,x,1,0.1540803,None,5,0,20,0,,,,,48.2153448,,48.1997417,48.2153448,49.1985803,49.1985803,49.1985803,49.1985803,49.2152124,50.2154005,50.2154005,50.3826809,x,1,0.1540803,None,,,,,F5,1,2025-10-02_16h50.09.582,Motor sequence,,2025.1.1,60.12954309,2025-10-02 16h50.17.819326 +0530
150,v,21,1,5,v,1,0.3782976,None,5,1,21,1,,,,,50.398507,,50.3831413,50.398507,51.3819755,51.3819755,51.3819755,51.3819755,51.3986474,52.3982651,52.3982651,52.7823934,v,1,0.3782976,None,,,,,F5,1,2025-10-02_16h50.09.582,Motor sequence,,2025.1.1,60.12954309,2025-10-02 16h50.17.819326 +0530
50,c,22,2,5,c,1,0.4024969,None,5,2,22,2,,,,,52.7984334,,52.7829132,52.7984334,53.7814829,53.7814829,53.7814829,53.7814829,53.7979297,54.781317,54.781317,55.1991712,c,1,0.4024969,None,,,,,F5,1,2025-10-02_16h50.09.582,Motor sequence,,2025.1.1,60.12954309,2025-10-02 16h50.17.819326 +0530
-150,z,23,3,5,z,1,0.2775456,None,5,3,23,3,,,,,55.2150534,,55.1996294,55.2150534,56.2147956,56.2147956,56.2147956,56.2147956,56.2147956,57.2146747,57.2146747,57.4985913,z,1,0.2775456,None,,,,,F5,1,2025-10-02_16h50.09.582,Motor sequence,,2025.1.1,60.12954309,2025-10-02 16h50.17.819326 +0530
-50,x,24,0,6,x,1,0.7735417,None,6,0,24,0,,,,,57.5147356,,57.4993116,57.5147356,58.4981843,58.4981843,58.4981843,58.4981843,58.5148873,59.497786,59.497786,60.281853,x,1,0.7735417,None,,,,,F5,1,2025-10-02_16h50.09.582,Motor sequence,,2025.1.1,60.12954309,2025-10-02 16h50.17.819326 +0530
150,v,25,1,6,v,1,0.2844017,None,6,1,25,1,,,,,60.2979679,,60.2826139,60.2979679,61.2810854,61.2810854,61.2810854,61.2810854,61.2975028,62.2974998,62.2974998,62.598294,v,1,0.2844017,None,,,,,F5,1,2025-10-02_16h50.09.582,Motor sequence,,2025.1.1,60.12954309,2025-10-02 16h50.17.819326 +0530
50,c,26,2,6,c,1,0.4426778,None,6,2,26,2,,,,,62.6145229,,62.5987566,62.6145229,63.5977763,63.5977763,63.5977763,63.5977763,63.6145968,64.5978809,64.5978809,65.0481223,c,1,0.4426778,None,,,,,F5,1,2025-10-02_16h50.09.582,Motor sequence,,2025.1.1,60.12954309,2025-10-02 16h50.17.819326 +0530
-150,z,27,3,6,z,1,0.2721267,None,6,3,27,3,,,,,65.0645646,,65.0485798,65.0645646,66.0479861,66.0479861,66.0479861,66.0479861,66.06447,67.0476731,67.0476731,67.331317,z,1,0.2721267,None,,,,,F5,1,2025-10-02_16h50.09.582,Motor sequence,,2025.1.1,60.12954309,2025-10-02 16h50.17.819326 +0530
-50,x,28,0,7,x,1,0.329642,None,7,0,28,0,,,,,67.3475489,,67.3318463,67.3475489,68.3309938,68.3309938,68.3309938,68.3309938,68.3472618,69.3304403,69.3304403,69.6643581,x,1,0.329642,None,,,,,F5,1,2025-10-02_16h50.09.582,Motor sequence,,2025.1.1,60.12954309,2025-10-02 16h50.17.819326 +0530
150,v,29,1,7,v,1,0.3446836,None,7,1,29,1,,,,,69.6806477,,69.6648241,69.6806477,70.6641967,70.6641967,70.6641967,70.6641967,70.6806469,71.6640101,71.6640101,72.0143957,v,1,0.3446836,None,,,,,F5,1,2025-10-02_16h50.09.582,Motor sequence,,2025.1.1,60.12954309,2025-10-02 16h50.17.819326 +0530
50,c,30,2,7,c,1,0.6866865,None,7,2,30,2,,,,,72.0304551,,72.0149089,72.0304551,73.0140863,73.0140863,73.0140863,73.0140863,73.0304637,74.0138134,74.0138134,74.7144316,c,1,0.6866865,None,,,,,F5,1,2025-10-02_16h50.09.582,Motor sequence,,2025.1.1,60.12954309,2025-10-02 16h50.17.819326 +0530
-150,z,31,3,7,z,1,0.2891885,None,7,3,31,3,,,,,74.7303387,,74.7149382,74.7303387,75.7134471,75.7134471,75.7134471,75.7134471,75.7298656,76.7136738,76.7136738,77.0140643,z,1,0.2891885,None,,,,,F5,1,2025-10-02_16h50.09.582,Motor sequence,,2025.1.1,60.12954309,2025-10-02 16h50.17.819326 +0530
-50,x,32,0,8,x,1,0.3378088,None,8,0,32,0,,,,,77.0301762,,77.0145563,77.0301762,78.0137345,78.0137345,78.0137345,78.0137345,78.0302073,79.0132062,79.0132062,79.363987,x,1,0.3378088,None,,,,,F5,1,2025-10-02_16h50.09.582,Motor sequence,,2025.1.1,60.12954309,2025-10-02 16h50.17.819326 +0530
150,v,33,1,8,v,1,0.4530039,None,8,1,33,1,,,,,79.3802602,,79.3645014,79.3802602,80.3636728,80.3636728,80.3636728,80.3636728,80.3803801,81.3797701,81.3797701,81.8474199,v,1,0.4530039,None,,,,,F5,1,2025-10-02_16h50.09.582,Motor sequence,,2025.1.1,60.12954309,2025-10-02 16h50.17.819326 +0530
50,c,34,2,8,c,1,0.366953,None,8,2,34,2,,,,,81.8633344,,81.8478781,81.8633344,82.8467792,82.8467792,82.8467792,82.8467792,82.8632288,83.8634828,83.8634828,84.2468705,c,1,0.366953,None,,,,,F5,1,2025-10-02_16h50.09.582,Motor sequence,,2025.1.1,60.12954309,2025-10-02 16h50.17.819326 +0530
-150,z,35,3,8,z,1,0.2312982,None,8,3,35,3,,,,,84.2633158,,84.2473367,84.2633158,85.2468636,85.2468636,85.2468636,85.2468636,85.2629819,86.2465026,86.2465026,86.4803593,z,1,0.2312982,None,,,,,F5,1,2025-10-02_16h50.09.582,Motor sequence,,2025.1.1,60.12954309,2025-10-02 16h50.17.819326 +0530
-50,x,36,0,9,x,1,0.1609796,None,9,0,36,0,,,,,86.4964198,,86.4808389,86.4964198,87.4798181,87.4798181,87.4798181,87.4798181,87.4962235,88.4792278,88.4792278,88.6468171,x,1,0.1609796,None,,,,,F5,1,2025-10-02_16h50.09.582,Motor sequence,,2025.1.1,60.12954309,2025-10-02 16h50.17.819326 +0530
150,v,37,1,9,v,1,0.3665344,None,9,1,37,1,,,,,88.6632059,,88.6472588,88.6632059,89.6462216,89.6462216,89.6462216,89.6462216,89.6628868,90.6462798,90.6462798,91.0297356,v,1,0.3665344,None,,,,,F5,1,2025-10-02_16h50.09.582,Motor sequence,,2025.1.1,60.12954309,2025-10-02 16h50.17.819326 +0530
50,c,38,2,9,c,1,0.2776651,None,9,2,38,2,,,,,91.0461584,,91.0301859,91.0461584,92.0297386,92.0297386,92.0297386,92.0297386,92.0461243,93.0294197,93.0294197,93.3131462,c,1,0.2776651,None,,,,,F5,1,2025-10-02_16h50.09.582,Motor sequence,,2025.1.1,60.12954309,2025-10-02 16h50.17.819326 +0530
-150,z,39,3,9,z,1,0.3903981,None,9,3,39,3,,,,,93.3291285,,93.3139385,93.3291285,94.312574,94.312574,94.312574,94.312574,94.3292785,95.3123922,95.3123922,95.7129418,z,1,0.3903981,None,,,,,F5,1,2025-10-02_16h50.09.582,Motor sequence,,2025.1.1,60.12954309,2025-10-02 16h50.17.819326 +0530
-50,x,40,0,10,x,1,0.113639,None,10,0,40,0,,,,,95.7291454,,95.7134842,95.7291454,96.7125474,96.7125474,96.7125474,96.7125474,96.7290558,97.7122475,97.7122475,97.8298357,x,1,0.113639,None,,,,,F5,1,2025-10-02_16h50.09.582,Motor sequence,,2025.1.1,60.12954309,2025-10-02 16h50.17.819326 +0530
150,v,41,1,10,v,1,0.092274,None,10,1,41,1,,,,,97.8455386,,97.8302893,97.8455386,98.8291302,98.8291302,98.8291302,98.8291302,98.8455355,99.8456691,99.8456691,99.9461858,v,1,0.092274,None,,,,,F5,1,2025-10-02_16h50.09.582,Motor sequence,,2025.1.1,60.12954309,2025-10-02 16h50.17.819326 +0530
50,c,42,2,10,c,1,0.1644489,None,10,2,42,2,,,,,99.9620962,,99.9469019,99.9620962,100.9456601,100.9456601,100.9456601,100.9456601,100.9623767,101.9455741,101.9455741,102.112972,c,1,0.1644489,None,,,,,F5,1,2025-10-02_16h50.09.582,Motor sequence,,2025.1.1,60.12954309,2025-10-02 16h50.17.819326 +0530
-150,z,43,3,10,z,1,0.2257888,None,10,3,43,3,,,,,102.1287397,,102.113423,102.1287397,103.1118904,103.1118904,103.1118904,103.1118904,103.1285495,104.1282295,104.1282295,104.3627378,z,1,0.2257888,None,,,,,F5,1,2025-10-02_16h50.09.582,Motor sequence,,2025.1.1,60.12954309,2025-10-02 16h50.17.819326 +0530
-50,x,44,0,11,x,1,0.3817142,None,11,0,44,0,,,,,104.3786183,,104.3632339,104.3786183,105.3622113,105.3622113,105.3622113,105.3622113,105.378237,106.3783495,106.3783495,106.7624006,x,1,0.3817142,None,,,,,F5,1,2025-10-02_16h50.09.582,Motor sequence,,2025.1.1,60.12954309,2025-10-02 16h50.17.819326 +0530
150,v,45,1,11,v,1,0.0840875,None,11,1,45,1,,,,,106.7785989,,106.7628655,106.7785989,107.7618575,107.7618575,107.7618575,107.7618575,107.7782571,108.7784525,108.7784525,108.87885,v,1,0.0840875,None,,,,,F5,1,2025-10-02_16h50.09.582,Motor sequence,,2025.1.1,60.12954309,2025-10-02 16h50.17.819326 +0530
50,c,46,2,11,c,1,0.07214,None,11,2,46,2,,,,,108.8951385,,108.8793418,108.8951385,109.8783366,109.8783366,109.8783366,109.8783366,109.8948605,110.878165,110.878165,110.9621881,c,1,0.07214,None,,,,,F5,1,2025-10-02_16h50.09.582,Motor sequence,,2025.1.1,60.12954309,2025-10-02 16h50.17.819326 +0530
-150,z,47,3,11,z,1,0.2407625,None,11,3,47,3,,,,,110.9781159,,110.9626746,110.9781159,111.9617863,111.9617863,111.9617863,111.9617863,111.9781068,112.9613976,112.9613976,113.21209,z,1,0.2407625,None,,,,,F5,1,2025-10-02_16h50.09.582,Motor sequence,,2025.1.1,60.12954309,2025-10-02 16h50.17.819326 +0530
-50,x,48,0,12,x,1,0.223404,None,12,0,48,0,,,,,113.2281167,,113.2125552,113.2281167,114.211541,114.211541,114.211541,114.211541,114.2277914,115.2113769,115.2113769,115.445229,x,1,0.223404,None,,,,,F5,1,2025-10-02_16h50.09.582,Motor sequence,,2025.1.1,60.12954309,2025-10-02 16h50.17.819326 +0530
150,v,49,1,12,v,1,0.3025475,None,12,1,49,1,,,,,115.4615659,,115.4456812,115.4615659,116.4447061,116.4447061,116.4447061,116.4447061,116.4610469,117.4445004,117.4445004,117.7620101,v,1,0.3025475,None,,,,,F5,1,2025-10-02_16h50.09.582,Motor sequence,,2025.1.1,60.12954309,2025-10-02 16h50.17.819326 +0530
50,c,50,2,12,c,1,0.2666434,None,12,2,50,2,,,,,117.7779674,,117.7624725,117.7779674,118.7610062,118.7610062,118.7610062,118.7610062,118.7775557,119.7779925,119.7779925,120.0616887,c,1,0.2666434,None,,,,,F5,1,2025-10-02_16h50.09.582,Motor sequence,,2025.1.1,60.12954309,2025-10-02 16h50.17.819326 +0530
-150,z,51,3,12,z,1,0.3269418,None,12,3,51,3,,,,,120.0776856,,120.0621234,120.0776856,121.0611281,121.0611281,121.0611281,121.0611281,121.0775876,122.060909,122.060909,122.3945638,z,1,0.3269418,None,,,,,F5,1,2025-10-02_16h50.09.582,Motor sequence,,2025.1.1,60.12954309,2025-10-02 16h50.17.819326 +0530
-50,x,52,0,13,x,1,0.0309333,None,13,0,52,0,,,,,122.4109989,,122.3950201,122.4109989,123.3944101,123.3944101,123.3944101,123.3944101,123.4106611,124.3942012,124.3942012,124.4280069,x,1,0.0309333,None,,,,,F5,1,2025-10-02_16h50.09.582,Motor sequence,,2025.1.1,60.12954309,2025-10-02 16h50.17.819326 +0530
150,v,53,1,13,v,1,0.167422,None,13,1,53,1,,,,,124.4442663,,124.4284631,124.4442663,125.4274375,125.4274375,125.4274375,125.4274375,125.443972,126.4440449,126.4440449,126.6278842,v,1,0.167422,None,,,,,F5,1,2025-10-02_16h50.09.582,Motor sequence,,2025.1.1,60.12954309,2025-10-02 16h50.17.819326 +0530
50,c,54,2,13,c,1,0.2426731,None,13,2,54,2,,,,,126.6441147,,126.6283452,126.6441147,127.6274282,127.6274282,127.6274282,127.6274282,127.6438393,128.6270608,128.6270608,128.8777236,c,1,0.2426731,None,,,,,F5,1,2025-10-02_16h50.09.582,Motor sequence,,2025.1.1,60.12954309,2025-10-02 16h50.17.819326 +0530
-150,z,55,3,13,z,1,0.1952305,None,13,3,55,3,,,,,128.8940326,,128.8781876,128.8940326,129.8772446,129.8772446,129.8772446,129.8772446,129.8936293,130.8768035,130.8768035,131.0774134,z,1,0.1952305,None,,,,,F5,1,2025-10-02_16h50.09.582,Motor sequence,,2025.1.1,60.12954309,2025-10-02 16h50.17.819326 +0530
-50,x,56,0,14,x,1,0.1770025,None,14,0,56,0,,,,,131.0937541,,131.0778628,131.0937541,132.0770024,132.0770024,132.0770024,132.0770024,132.0934864,133.0767495,133.0767495,133.2607146,x,1,0.1770025,None,,,,,F5,1,2025-10-02_16h50.09.582,Motor sequence,,2025.1.1,60.12954309,2025-10-02 16h50.17.819326 +0530
150,v,57,1,14,v,1,0.2616149,None,14,1,57,1,,,,,133.2768847,,133.2611873,133.2768847,134.2601475,134.2601475,134.2601475,134.2601475,134.2767579,135.2597952,135.2597952,135.5273637,v,1,0.2616149,None,,,,,F5,1,2025-10-02_16h50.09.582,Motor sequence,,2025.1.1,60.12954309,2025-10-02 16h50.17.819326 +0530
50,c,58,2,14,c,1,0.2821526,None,14,2,58,2,,,,,135.5438844,,135.5278392,135.5438844,136.5268534,136.5268534,136.5268534,136.5268534,136.5434368,137.5266612,137.5266612,137.8104883,c,1,0.2821526,None,,,,,F5,1,2025-10-02_16h50.09.582,Motor sequence,,2025.1.1,60.12954309,2025-10-02 16h50.17.819326 +0530
-150,z,59,3,14,z,1,0.2665566,None,14,3,59,3,,,,,137.8267234,,137.8109424,137.8267234,138.8101791,138.8101791,138.8101791,138.8101791,138.8264858,139.8097256,139.8097256,140.0936727,z,1,0.2665566,None,,,,,F5,1,2025-10-02_16h50.09.582,Motor sequence,,2025.1.1,60.12954309,2025-10-02 16h50.17.819326 +0530
-50,x,60,0,15,x,1,0.2771528,None,15,0,60,0,,,,,140.1099139,,140.0941219,140.1099139,141.0933798,141.0933798,141.0933798,141.0933798,141.1097398,142.0931675,142.0931675,142.3768016,x,1,0.2771528,None,,,,,F5,1,2025-10-02_16h50.09.582,Motor sequence,,2025.1.1,60.12954309,2025-10-02 16h50.17.819326 +0530
150,v,61,1,15,v,1,0.3655091,None,15,1,61,1,,,,,142.3929711,,142.3772494,142.3929711,143.3764694,143.3764694,143.3764694,143.3764694,143.3929952,144.3759487,144.3759487,144.7436135,v,1,0.3655091,None,,,,,F5,1,2025-10-02_16h50.09.582,Motor sequence,,2025.1.1,60.12954309,2025-10-02 16h50.17.819326 +0530
50,c,62,2,15,c,1,0.2551245,None,15,2,62,2,,,,,144.759727,,144.7440753,144.759727,145.7429112,145.7429112,145.7429112,145.7429112,145.7593032,146.7593901,146.7593901,147.0267422,c,1,0.2551245,None,,,,,F5,1,2025-10-02_16h50.09.582,Motor sequence,,2025.1.1,60.12954309,2025-10-02 16h50.17.819326 +0530
-150,z,63,3,15,z,1,0.2352123,None,15,3,63,3,,,,,147.0429601,,147.0272098,147.0429601,148.0262276,148.0262276,148.0262276,148.0262276,148.0425863,149.0259013,149.0259013,149.2761138,z,1,0.2352123,None,,,,,F5,1,2025-10-02_16h50.09.582,Motor sequence,,2025.1.1,60.12954309,2025-10-02 16h50.17.819326 +0530
-50,x,64,0,16,x,1,0.3097802,None,16,0,64,0,,,,,149.292636,,149.2765679,149.292636,150.2756341,150.2756341,150.2756341,150.2756341,150.2925733,151.275713,151.275713,151.5931542,x,1,0.3097802,None,,,,,F5,1,2025-10-02_16h50.09.582,Motor sequence,,2025.1.1,60.12954309,2025-10-02 16h50.17.819326 +0530
150,v,65,1,16,v,1,0.2772694,None,16,1,65,1,,,,,151.6092605,,151.5935983,151.6092605,152.5923679,152.5923679,152.5923679,152.5923679,152.6090397,153.6090416,153.6090416,153.8928625,v,1,0.2772694,None,,,,,F5,1,2025-10-02_16h50.09.582,Motor sequence,,2025.1.1,60.12954309,2025-10-02 16h50.17.819326 +0530
50,c,66,2,16,c,1,0.2781684,None,16,2,66,2,,,,,153.9091759,,153.893314,153.9091759,154.8925166,154.8925166,154.8925166,154.8925166,154.9089986,155.8920714,155.8920714,156.176034,c,1,0.2781684,None,,,,,F5,1,2025-10-02_16h50.09.582,Motor sequence,,2025.1.1,60.12954309,2025-10-02 16h50.17.819326 +0530
-150,z,67,3,16,z,1,0.2964498,None,16,3,67,3,,,,,156.1923886,,156.1764822,156.1923886,157.1755945,157.1755945,157.1755945,157.1755945,157.1919557,158.1754199,158.1754199,158.4756426,z,1,0.2964498,None,,,,,F5,1,2025-10-02_16h50.09.582,Motor sequence,,2025.1.1,60.12954309,2025-10-02 16h50.17.819326 +0530
-50,x,68,0,17,x,1,0.2578813,None,17,0,68,0,,,,,158.4922572,,158.4761144,158.4922572,159.4754132,159.4754132,159.4754132,159.4754132,159.492019,160.4752504,160.4752504,160.7421232,x,1,0.2578813,None,,,,,F5,1,2025-10-02_16h50.09.582,Motor sequence,,2025.1.1,60.12954309,2025-10-02 16h50.17.819326 +0530
150,v,69,1,17,v,1,0.4194116,None,17,1,69,1,,,,,160.7583934,,160.742666,160.7583934,161.7420894,161.7420894,161.7420894,161.7420894,161.7584686,162.7417691,162.7417691,163.1754626,v,1,0.4194116,None,,,,,F5,1,2025-10-02_16h50.09.582,Motor sequence,,2025.1.1,60.12954309,2025-10-02 16h50.17.819326 +0530
50,c,70,2,17,c,1,0.2992828,None,17,2,70,2,,,,,163.1916692,,163.1760707,163.1916692,164.1752585,164.1752585,164.1752585,164.1752585,164.1915714,165.174831,165.174831,165.4755256,c,1,0.2992828,None,,,,,F5,1,2025-10-02_16h50.09.582,Motor sequence,,2025.1.1,60.12954309,2025-10-02 16h50.17.819326 +0530
-150,z,71,3,17,z,1,0.3142856,None,17,3,71,3,,,,,165.4917914,,165.4759726,165.4917914,166.4747495,166.4747495,166.4747495,166.4747495,166.4911431,167.4915974,167.4915974,167.8087646,z,1,0.3142856,None,,,,,F5,1,2025-10-02_16h50.09.582,Motor sequence,,2025.1.1,60.12954309,2025-10-02 16h50.17.819326 +0530
-50,x,72,0,18,x,1,0.0966826,None,18,0,72,0,,,,,167.8249057,,167.8092386,167.8249057,168.8081848,168.8081848,168.8081848,168.8081848,168.8246738,169.8079455,169.8079455,169.9083584,x,1,0.0966826,None,,,,,F5,1,2025-10-02_16h50.09.582,Motor sequence,,2025.1.1,60.12954309,2025-10-02 16h50.17.819326 +0530
150,v,73,1,18,v,1,0.2428528,None,18,1,73,1,,,,,169.9246752,,169.9088127,169.9246752,170.9082531,170.9082531,170.9082531,170.9082531,170.9246646,171.9079099,171.9079099,172.1584062,v,1,0.2428528,None,,,,,F5,1,2025-10-02_16h50.09.582,Motor sequence,,2025.1.1,60.12954309,2025-10-02 16h50.17.819326 +0530
50,c,74,2,18,c,1,0.3278442,None,18,2,74,2,,,,,172.1744991,,172.1588694,172.1744991,173.1580899,173.1580899,173.1580899,173.1580899,173.1743735,174.1578401,174.1578401,174.4913561,c,1,0.3278442,None,,,,,F5,1,2025-10-02_16h50.09.582,Motor sequence,,2025.1.1,60.12954309,2025-10-02 16h50.17.819326 +0530
-150,z,75,3,18,z,1,0.3107386,None,18,3,75,3,,,,,174.50785,,174.4918129,174.50785,175.4912885,175.4912885,175.4912885,175.4912885,175.5076318,176.4905544,176.4905544,176.8079547,z,1,0.3107386,None,,,,,F5,1,2025-10-02_16h50.09.582,Motor sequence,,2025.1.1,60.12954309,2025-10-02 16h50.17.819326 +0530
-50,x,76,0,19,x,1,0.3103665,None,19,0,76,0,,,,,176.8241708,,176.8084024,176.8241708,177.8077527,177.8077527,177.8077527,177.8077527,177.8237863,178.8074849,178.8074849,179.1246329,x,1,0.3103665,None,,,,,F5,1,2025-10-02_16h50.09.582,Motor sequence,,2025.1.1,60.12954309,2025-10-02 16h50.17.819326 +0530
50,c,78,2,19,c,1,0.3174029,None,19,2,78,2,,,,,181.6072928,,181.5917781,181.6072928,182.5906072,182.5906072,182.5906072,182.5906072,182.6070942,183.590441,183.590441,183.9242926,c,1,0.3174029,None,,,,,F5,1,2025-10-02_16h50.09.582,Motor sequence,,2025.1.1,60.12954309,2025-10-02 16h50.17.819326 +0530
-150,z,79,3,19,z,1,0.2664236,None,19,3,79,3,,,,,183.9405322,,183.9247412,183.9405322,184.9237975,184.9237975,184.9237975,184.9237975,184.9402885,185.923654,185.923654,186.1909012,z,1,0.2664236,None,,,,,F5,1,2025-10-02_16h50.09.582,Motor sequence,,2025.1.1,60.12954309,2025-10-02 16h50.17.819326 +0530
-50,x,80,0,20,x,1,0.2632384,None,20,0,80,0,,,,,186.2071261,,186.1913516,186.2071261,187.1903537,187.1903537,187.1903537,187.1903537,187.2069634,188.1900556,188.1900556,188.457368,x,1,0.2632384,None,,,,,F5,1,2025-10-02_16h50.09.582,Motor sequence,,2025.1.1,60.12954309,2025-10-02 16h50.17.819326 +0530
150,v,81,1,20,v,1,0.2481074,None,20,1,81,1,,,,,188.4737721,,188.4578331,188.4737721,189.4568182,189.4568182,189.4568182,189.4568182,189.4732945,190.4567317,190.4567317,190.7074333,v,1,0.2481074,None,,,,,F5,1,2025-10-02_16h50.09.582,Motor sequence,,2025.1.1,60.12954309,2025-10-02 16h50.17.819326 +0530
50,c,82,2,20,c,1,0.4091464,None,20,2,82,2,,,,,190.7233999,,190.7078819,190.7233999,191.7068449,191.7068449,191.7068449,191.7068449,191.7228576,192.7232692,192.7232692,193.1405797,c,1,0.4091464,None,,,,,F5,1,2025-10-02_16h50.09.582,Motor sequence,,2025.1.1,60.12954309,2025-10-02 16h50.17.819326 +0530
-150,z,83,3,20,z,1,0.2968686,None,20,3,83,3,,,,,193.1569097,,193.1410429,193.1569097,194.1400442,194.1400442,194.1400442,194.1400442,194.1563145,195.1398324,195.1398324,195.4406769,z,1,0.2968686,None,,,,,F5,1,2025-10-02_16h50.09.582,Motor sequence,,2025.1.1,60.12954309,2025-10-02 16h50.17.819326 +0530
-50,x,84,0,21,x,1,0.2657129,None,21,0,84,0,,,,,195.4564669,,195.4411412,195.4564669,196.4398266,196.4398266,196.4398266,196.4398266,196.4563306,197.4563044,197.4563044,197.7234464,x,1,0.2657129,None,,,,,F5,1,2025-10-02_16h50.09.582,Motor sequence,,2025.1.1,60.12954309,2025-10-02 16h50.17.819326 +0530
150,v,85,1,21,v,1,0.2372155,None,21,1,85,1,,,,,197.7396335,,197.7239563,197.7396335,198.7231342,198.7231342,198.7231342,198.7231342,198.7395332,199.7228663,199.7228663,199.9733504,v,1,0.2372155,None,,,,,F5,1,2025-10-02_16h50.09.582,Motor sequence,,2025.1.1,60.12954309,2025-10-02 16h50.17.819326 +0530
50,c,86,2,21,c,1,0.3049286,None,21,2,86,2,,,,,199.9895592,,199.9738714,199.9895592,200.9729763,200.9729763,200.9729763,200.9729763,200.9894098,201.9725314,201.9725314,202.2900617,c,1,0.3049286,None,,,,,F5,1,2025-10-02_16h50.09.582,Motor sequence,,2025.1.1,60.12954309,2025-10-02 16h50.17.819326 +0530
-150,z,87,3,21,z,1,0.2362231,None,21,3,87,3,,,,,202.305949,,202.2905119,202.305949,203.2895351,203.2895351,203.2895351,203.2895351,203.3059309,204.2891584,204.2891584,204.5398979,z,1,0.2362231,None,,,,,F5,1,2025-10-02_16h50.09.582,Motor sequence,,2025.1.1,60.12954309,2025-10-02 16h50.17.819326 +0530
-50,x,88,0,22,x,1,0.0325567,None,22,0,88,0,,,,,204.5560278,,204.540368,204.5560278,205.5392964,205.5392964,205.5392964,205.5392964,205.5556617,206.5387441,206.5387441,206.5728065,x,1,0.0325567,None,,,,,F5,1,2025-10-02_16h50.09.582,Motor sequence,,2025.1.1,60.12954309,2025-10-02 16h50.17.819326 +0530
150,v,89,1,22,v,1,0.3264614,None,22,1,89,1,,,,,206.5892081,,206.5732514,206.5892081,207.5724801,207.5724801,207.5724801,207.5724801,207.589047,208.5721165,208.5721165,208.9062858,v,1,0.3264614,None,,,,,F5,1,2025-10-02_16h50.09.582,Motor sequence,,2025.1.1,60.12954309,2025-10-02 16h50.17.819326 +0530
50,c,90,2,22,c,1,0.3422523,None,22,2,90,2,,,,,208.9224978,,208.9067876,208.9224978,209.9057606,209.9057606,209.9057606,209.9057606,209.9218825,210.9054384,210.9054384,211.2561934,c,1,0.3422523,None,,,,,F5,1,2025-10-02_16h50.09.582,Motor sequence,,2025.1.1,60.12954309,2025-10-02 16h50.17.819326 +0530
-150,z,91,3,22,z,1,0.249233,None,22,3,91,3,,,,,211.2720844,,211.2566523,211.2720844,212.2554444,212.2554444,212.2554444,212.2554444,212.2718777,213.255422,213.255422,213.5059805,z,1,0.249233,None,,,,,F5,1,2025-10-02_16h50.09.582,Motor sequence,,2025.1.1,60.12954309,2025-10-02 16h50.17.819326 +0530
-50,x,92,0,23,x,1,0.3661545,None,23,0,92,0,,,,,213.5220993,,213.5064303,213.5220993,214.5056742,214.5056742,214.5056742,214.5056742,214.5217701,215.5050971,215.5050971,215.872485,x,1,0.3661545,None,,,,,F5,1,2025-10-02_16h50.09.582,Motor sequence,,2025.1.1,60.12954309,2025-10-02 16h50.17.819326 +0530
150,v,93,1,23,v,1,0.3122732,None,23,1,93,1,,,,,215.8884806,,215.8729305,215.8884806,216.8720138,216.8720138,216.8720138,216.8720138,216.8884244,217.8713526,217.8713526,218.1887202,v,1,0.3122732,None,,,,,F5,1,2025-10-02_16h50.09.582,Motor sequence,,2025.1.1,60.12954309,2025-10-02 16h50.17.819326 +0530
50,c,94,2,23,c,1,0.2279453,None,23,2,94,2,,,,,218.2054445,,218.1892078,218.2054445,219.1884221,219.1884221,219.1884221,219.1884221,219.2051069,220.188148,220.188148,220.4215207,c,1,0.2279453,None,,,,,F5,1,2025-10-02_16h50.09.582,Motor sequence,,2025.1.1,60.12954309,2025-10-02 16h50.17.819326 +0530
-150,z,95,3,23,z,1,0.2023845,None,23,3,95,3,,,,,220.4385134,,220.4219229,220.4385134,221.4216834,221.4216834,221.4216834,221.4216834,221.438227,222.4213907,222.4213907,222.6386734,z,1,0.2023845,None,,,,,F5,1,2025-10-02_16h50.09.582,Motor sequence,,2025.1.1,60.12954309,2025-10-02 16h50.17.819326 +0530
-50,x,96,0,24,x,1,0.2884575,None,24,0,96,0,,,,,222.654824,,222.6391336,222.654824,223.6381576,223.6381576,223.6381576,223.6381576,223.6546665,224.6379176,224.6379176,224.9385695,x,1,0.2884575,None,,,,,F5,1,2025-10-02_16h50.09.582,Motor sequence,,2025.1.1,60.12954309,2025-10-02 16h50.17.819326 +0530
150,v,97,1,24,v,1,0.5417827,None,24,1,97,1,,,,,224.9546386,,224.9390195,224.9546386,225.9380718,225.9380718,225.9380718,225.9380718,225.9544776,226.9545914,226.9545914,227.5053505,v,1,0.5417827,None,,,,,F5,1,2025-10-02_16h50.09.582,Motor sequence,,2025.1.1,60.12954309,2025-10-02 16h50.17.819326 +0530
50,c,98,2,24,c,1,0.3007451,None,24,2,98,2,,,,,227.5210435,,227.5058836,227.5210435,228.5046349,228.5046349,228.5046349,228.5046349,228.5210673,229.5210621,229.5210621,229.8381443,c,1,0.3007451,None,,,,,F5,1,2025-10-02_16h50.09.582,Motor sequence,,2025.1.1,60.12954309,2025-10-02 16h50.17.819326 +0530
-150,z,99,3,24,z,1,0.2969684,None,24,3,99,3,,,,,229.8542867,,229.8386057,229.8542867,230.837983,230.837983,230.837983,230.837983,230.8540246,231.8373321,231.8373321,232.1381117,z,1,0.2969684,None,,,,,F5,1,2025-10-02_16h50.09.582,Motor sequence,,2025.1.1,60.12954309,2025-10-02 16h50.17.819326 +0530
-150,z,0,0,0,z,1,0.69944,None,,,,,0,0,0,3,232.1582578,,232.1532555,232.1582578,233.1376453,233.1376453,233.1376453,233.1376453,233.1706203,234.1374494,234.1374494,234.8379689,,,,,z,1,0.69944,None,F5,1,2025-10-02_16h50.09.582,Motor sequence,,2025.1.1,60.12954309,2025-10-02 16h50.17.819326 +0530
150,v,1,1,0,v,1,0.4670699,None,,,,,0,1,1,1,234.854252,,234.838459,234.854252,235.8377379,235.8377379,235.8377379,235.8377379,235.8539299,236.837381,236.837381,237.3211276,,,,,v,1,0.4670699,None,F5,1,2025-10-02_16h50.09.582,Motor sequence,,2025.1.1,60.12954309,2025-10-02 16h50.17.819326 +0530
50,c,2,2,0,c,1,0.3317418,None,,,,,0,2,2,2,237.3372604,,237.3217866,237.3372604,238.3206042,238.3206042,238.3206042,238.3206042,238.3371789,239.3204407,239.3204407,239.6541275,,,,,c,1,0.3317418,None,F5,1,2025-10-02_16h50.09.582,Motor sequence,,2025.1.1,60.12954309,2025-10-02 16h50.17.819326 +0530
-50,x,3,3,0,x,1,0.4009497,None,,,,,0,3,3,0,239.6705954,,239.6545801,239.6705954,240.6538555,240.6538555,240.6538555,240.6538555,240.6701973,241.6536039,241.6536039,242.0707954,,,,,x,1,0.4009497,None,F5,1,2025-10-02_16h50.09.582,Motor sequence,,2025.1.1,60.12954309,2025-10-02 16h50.17.819326 +0530
-50,x,4,4,1,x,1,0.6091344,None,,,,,1,4,4,0,242.0869158,,242.0714605,242.0869158,243.0704833,243.0704833,243.0704833,243.0704833,243.0869925,244.0699007,244.0699007,244.6873357,,,,,x,1,0.6091344,None,F5,1,2025-10-02_16h50.09.582,Motor sequence,,2025.1.1,60.12954309,2025-10-02 16h50.17.819326 +0530
-150,z,5,5,1,z,1,0.5119993,None,,,,,1,5,5,3,244.7036748,,244.6877927,244.7036748,245.6871877,245.6871877,245.6871877,245.6871877,245.7031889,246.7033603,246.7033603,247.2202863,,,,,z,1,0.5119993,None,F5,1,2025-10-02_16h50.09.582,Motor sequence,,2025.1.1,60.12954309,2025-10-02 16h50.17.819326 +0530
-150,z,6,6,2,z,1,0.5985944,None,,,,,2,6,6,3,247.2367263,,247.2208133,247.2367263,248.2195574,248.2195574,248.2195574,248.2195574,248.2360582,249.2194222,249.2194222,249.8204271,,,,,z,1,0.5985944,None,F5,1,2025-10-02_16h50.09.582,Motor sequence,,2025.1.1,60.12954309,2025-10-02 16h50.17.819326 +0530
-150,z,7,7,3,z,1,0.915084,None,,,,,3,7,7,3,249.8366598,,249.8209113,249.8366598,250.8198502,250.8198502,250.8198502,250.8198502,250.8363448,251.836322,251.836322,252.7535629,,,,,z,1,0.915084,None,F5,1,2025-10-02_16h50.09.582,Motor sequence,,2025.1.1,60.12954309,2025-10-02 16h50.17.819326 +0530
150,v,8,8,1,v,1,0.621796,None,,,,,1,8,8,1,252.7700046,,252.7540725,252.7700046,253.7530814,253.7530814,253.7530814,253.7530814,253.7696394,254.7526971,254.7526971,255.3867486,,,,,v,1,0.621796,None,F5,1,2025-10-02_16h50.09.582,Motor sequence,,2025.1.1,60.12954309,2025-10-02 16h50.17.819326 +0530
-150,z,9,9,4,z,1,0.5162275,None,,,,,4,9,9,3,255.4028876,,255.3872286,255.4028876,256.3862996,256.3862996,256.3862996,256.3862996,256.4026777,257.3858094,257.3858094,257.903306,,,,,z,1,0.5162275,None,F5,1,2025-10-02_16h50.09.582,Motor sequence,,2025.1.1,60.12954309,2025-10-02 16h50.17.819326 +0530
-150,z,10,10,5,z,1,0.7023042,None,,,,,5,10,10,3,257.9191447,,257.9037762,257.9191447,258.9026998,258.9026998,258.9026998,258.9026998,258.9192401,259.9023894,259.9023894,260.6195037,,,,,z,1,0.7023042,None,F5,1,2025-10-02_16h50.09.582,Motor sequence,,2025.1.1,60.12954309,2025-10-02 16h50.17.819326 +0530
-50,x,11,11,2,x,1,1.0252536,None,,,,,2,11,11,0,260.6359593,,260.6199785,260.6359593,261.6191722,261.6191722,261.6191722,261.6191722,261.6355509,262.6186902,262.6186902,263.6528793,,,,,x,1,1.0252536,None,F5,1,2025-10-02_16h50.09.582,Motor sequence,,2025.1.1,60.12954309,2025-10-02 16h50.17.819326 +0530
-150,z,12,12,6,z,1,0.5782511,None,,,,,6,12,12,3,263.6687113,,263.6536683,263.6687113,264.652501,264.652501,264.652501,264.652501,264.6688473,265.652354,265.652354,266.2358716,,,,,z,1,0.5782511,None,F5,1,2025-10-02_16h50.09.582,Motor sequence,,2025.1.1,60.12954309,2025-10-02 16h50.17.819326 +0530
-50,x,13,13,3,x,1,0.7049541,None,,,,,3,13,13,0,266.2521487,,266.2363724,266.2521487,267.2357126,267.2357126,267.2357126,267.2357126,267.252087,268.2355592,268.2355592,268.9522941,,,,,x,1,0.7049541,None,F5,1,2025-10-02_16h50.09.582,Motor sequence,,2025.1.1,60.12954309,2025-10-02 16h50.17.819326 +0530
-50,x,14,14,4,x,1,0.4554109,None,,,,,4,14,14,0,268.9686395,,268.952812,268.9686395,269.952003,269.952003,269.952003,269.952003,269.9684582,270.951878,270.951878,271.4191432,,,,,x,1,0.4554109,None,F5,1,2025-10-02_16h50.09.582,Motor sequence,,2025.1.1,60.12954309,2025-10-02 16h50.17.819326 +0530
50,c,15,15,1,c,1,0.4809337,None,,,,,1,15,15,2,271.4353107,,271.4196423,271.4353107,272.4186445,272.4186445,272.4186445,272.4186445,272.4351169,273.418394,273.418394,273.9024205,,,,,c,1,0.4809337,None,F5,1,2025-10-02_16h50.09.582,Motor sequence,,2025.1.1,60.12954309,2025-10-02 16h50.17.819326 +0530
50,c,16,16,2,c,1,0.4486447,None,,,,,2,16,16,2,273.9183206,,273.9029687,273.9183206,274.901958,274.901958,274.901958,274.901958,274.9181588,275.9182353,275.9182353,276.3688106,,,,,c,1,0.4486447,None,F5,1,2025-10-02_16h50.09.582,Motor sequence,,2025.1.1,60.12954309,2025-10-02 16h50.17.819326 +0530
-50,x,17,17,5,x,1,0.5805729,None,,,,,5,17,17,0,276.3848035,,276.3693704,276.3848035,277.368316,277.368316,277.368316,277.368316,277.3848469,278.3844543,278.3844543,278.9687355,,,,,x,1,0.5805729,None,F5,1,2025-10-02_16h50.09.582,Motor sequence,,2025.1.1,60.12954309,2025-10-02 16h50.17.819326 +0530
150,v,18,18,2,v,1,0.5904513,None,,,,,2,18,18,1,278.9847839,,278.9691911,278.9847839,279.9681303,279.9681303,279.9681303,279.9681303,279.984619,280.9847196,280.9847196,281.5852636,,,,,v,1,0.5904513,None,F5,1,2025-10-02_16h50.09.582,Motor sequence,,2025.1.1,60.12954309,2025-10-02 16h50.17.819326 +0530
50,c,19,19,3,c,1,0.9670943,None,,,,,3,19,19,2,281.6011309,,281.5857276,281.6011309,282.5847342,282.5847342,282.5847342,282.5847342,282.6010458,283.5844124,283.5844124,284.5680924,,,,,c,1,0.9670943,None,F5,1,2025-10-02_16h50.09.582,Motor sequence,,2025.1.1,60.12954309,2025-10-02 16h50.17.819326 +0530
150,v,20,20,3,v,1,0.5425862,None,,,,,3,20,20,1,284.5845973,,284.568547,284.5845973,285.5677994,285.5677994,285.5677994,285.5677994,285.5843111,286.5674912,286.5674912,287.1178549,,,,,v,1,0.5425862,None,F5,1,2025-10-02_16h50.09.582,Motor sequence,,2025.1.1,60.12954309,2025-10-02 16h50.17.819326 +0530
-150,z,21,21,7,z,1,0.4945382,None,,,,,7,21,21,3,287.134475,,287.1183273,287.134475,288.117412,288.117412,288.117412,288.117412,288.1342588,289.1172434,289.1172434,289.6180022,,,,,z,1,0.4945382,None,F5,1,2025-10-02_16h50.09.582,Motor sequence,,2025.1.1,60.12954309,2025-10-02 16h50.17.819326 +0530
50,c,22,22,4,c,1,0.3513256,None,,,,,4,22,22,2,289.6341916,,289.618466,289.6341916,290.6174673,290.6174673,290.6174673,290.6174673,290.6336787,291.6171441,291.6171441,291.9845305,,,,,c,1,0.3513256,None,F5,1,2025-10-02_16h50.09.582,Motor sequence,,2025.1.1,60.12954309,2025-10-02 16h50.17.819326 +0530
-150,z,23,23,8,z,1,0.5514258,None,,,,,8,23,23,3,292.0008688,,291.9850259,292.0008688,292.983921,292.983921,292.983921,292.983921,293.0004776,294.0005325,294.0005325,294.5675182,,,,,z,1,0.5514258,None,F5,1,2025-10-02_16h50.09.582,Motor sequence,,2025.1.1,60.12954309,2025-10-02 16h50.17.819326 +0530
-50,x,24,24,6,x,1,0.6133303,None,,,,,6,24,24,0,294.5840603,,294.5679858,294.5840603,295.5672068,295.5672068,295.5672068,295.5672068,295.5836891,296.5668964,296.5668964,297.1839297,,,,,x,1,0.6133303,None,F5,1,2025-10-02_16h50.09.582,Motor sequence,,2025.1.1,60.12954309,2025-10-02 16h50.17.819326 +0530
150,v,25,25,4,v,1,0.4884658,None,,,,,4,25,25,1,297.2003708,,297.1844428,297.2003708,298.183803,298.183803,298.183803,298.183803,298.2001541,299.1835592,299.1835592,299.6838976,,,,,v,1,0.4884658,None,F5,1,2025-10-02_16h50.09.582,Motor sequence,,2025.1.1,60.12954309,2025-10-02 16h50.17.819326 +0530
-50,x,26,26,7,x,1,0.5665491,None,,,,,7,26,26,0,299.7003017,,299.6843538,299.7003017,300.683635,300.683635,300.683635,300.683635,300.7001796,301.6831116,301.6831116,302.2505231,,,,,x,1,0.5665491,None,F5,1,2025-10-02_16h50.09.582,Motor sequence,,2025.1.1,60.12954309,2025-10-02 16h50.17.819326 +0530
50,c,27,27,5,c,1,0.3739403,None,,,,,5,27,27,2,302.2667746,,302.2509867,302.2667746,303.2499165,303.2499165,303.2499165,303.2499165,303.266465,304.2498153,304.2498153,304.6337475,,,,,c,1,0.3739403,None,F5,1,2025-10-02_16h50.09.582,Motor sequence,,2025.1.1,60.12954309,2025-10-02 16h50.17.819326 +0530
150,v,28,28,5,v,1,0.7317076,None,,,,,5,28,28,1,304.6501969,,304.6342141,304.6501969,305.633291,305.633291,305.633291,305.633291,305.6495826,306.633326,306.633326,307.367259,,,,,v,1,0.7317076,None,F5,1,2025-10-02_16h50.09.582,Motor sequence,,2025.1.1,60.12954309,2025-10-02 16h50.17.819326 +0530
-150,z,29,29,9,z,1,1.0104534,None,,,,,9,29,29,3,307.3830829,,307.3677251,307.3830829,308.36653,308.36653,308.36653,308.36653,308.3830186,309.3825964,309.3825964,310.3997425,,,,,z,1,1.0104534,None,F5,1,2025-10-02_16h50.09.582,Motor sequence,,2025.1.1,60.12954309,2025-10-02 16h50.17.819326 +0530
-150,z,30,30,10,z,1,0.6887378,None,,,,,10,30,30,3,310.4157854,,310.400145,310.4157854,311.3995396,311.3995396,311.3995396,311.3995396,311.4161041,312.3992592,312.3992592,313.0999899,,,,,z,1,0.6887378,None,F5,1,2025-10-02_16h50.09.582,Motor sequence,,2025.1.1,60.12954309,2025-10-02 16h50.17.819326 +0530
150,v,31,31,6,v,1,0.6544403,None,,,,,6,31,31,1,313.1160044,,313.1004477,313.1160044,314.0996194,314.0996194,314.0996194,314.0996194,314.1158572,315.0992212,315.0992212,315.7663753,,,,,v,1,0.6544403,None,F5,1,2025-10-02_16h50.09.582,Motor sequence,,2025.1.1,60.12954309,2025-10-02 16h50.17.819326 +0530
150,v,32,32,7,v,1,0.4809683,None,,,,,7,32,32,1,315.7824671,,315.7668482,315.7824671,316.7657004,316.7657004,316.7657004,316.7657004,316.7820015,317.7655732,317.7655732,318.249768,,,,,v,1,0.4809683,None,F5,1,2025-10-02_16h50.09.582,Motor sequence,,2025.1.1,60.12954309,2025-10-02 16h50.17.819326 +0530
-150,z,34,34,12,z,1,1.3081982,None,,,,,12,34,34,3,321.5153767,,321.499915,321.5153767,322.498889,322.498889,322.498889,322.498889,322.5150892,323.5152632,323.5152632,324.8323702,,,,,z,1,1.3081982,None,F5,1,2025-10-02_16h50.09.582,Motor sequence,,2025.1.1,60.12954309,2025-10-02 16h50.17.819326 +0530
150,v,36,36,8,v,1,0.5136205,None,,,,,8,36,36,1,327.2318322,,327.2162011,327.2318322,328.2151285,328.2151285,328.2151285,328.2151285,328.2318844,329.2148722,329.2148722,329.7322912,,,,,v,1,0.5136205,None,F5,1,2025-10-02_16h50.09.582,Motor sequence,,2025.1.1,60.12954309,2025-10-02 16h50.17.819326 +0530
-50,x,37,37,8,x,1,0.6938667,None,,,,,8,37,37,0,329.7482541,,329.7328087,329.7482541,330.7318665,330.7318665,330.7318665,330.7318665,330.7485504,331.7482159,331.7482159,332.4488555,,,,,x,1,0.6938667,None,F5,1,2025-10-02_16h50.09.582,Motor sequence,,2025.1.1,60.12954309,2025-10-02 16h50.17.819326 +0530
-50,x,38,38,9,x,1,0.5263567,None,,,,,9,38,38,0,332.4648112,,332.4493235,332.4648112,333.448278,333.448278,333.448278,333.448278,333.4647766,334.4478397,334.4478397,334.9817365,,,,,x,1,0.5263567,None,F5,1,2025-10-02_16h50.09.582,Motor sequence,,2025.1.1,60.12954309,2025-10-02 16h50.17.819326 +0530
-50,x,39,39,10,x,1,0.4506357,None,,,,,10,39,39,0,334.997996,,334.9822495,334.997996,335.9816887,335.9816887,335.9816887,335.9816887,335.9976711,336.9811683,336.9811683,337.448343,,,,,x,1,0.4506357,None,F5,1,2025-10-02_16h50.09.582,Motor sequence,,2025.1.1,60.12954309,2025-10-02 16h50.17.819326 +0530
50,c,40,40,7,c,1,0.6516012,None,,,,,7,40,40,2,337.4646711,,337.4488306,337.4646711,338.4481208,338.4481208,338.4481208,338.4481208,338.464443,339.4474858,339.4474858,340.1151252,,,,,c,1,0.6516012,None,F5,1,2025-10-02_16h50.09.582,Motor sequence,,2025.1.1,60.12954309,2025-10-02 16h50.17.819326 +0530
-150,z,41,41,13,z,1,0.7480444,None,,,,,13,41,41,3,340.1310749,,340.1155864,340.1310749,341.1143537,341.1143537,341.1143537,341.1143537,341.1309915,342.1140221,342.1140221,342.8647997,,,,,z,1,0.7480444,None,F5,1,2025-10-02_16h50.09.582,Motor sequence,,2025.1.1,60.12954309,2025-10-02 16h50.17.819326 +0530
150,v,42,42,9,v,1,0.5304154,None,,,,,9,42,42,1,342.8807722,,342.865269,342.8807722,343.8644011,343.8644011,343.8644011,343.8644011,343.8808149,344.8641069,344.8641069,345.3980455,,,,,v,1,0.5304154,None,F5,1,2025-10-02_16h50.09.582,Motor sequence,,2025.1.1,60.12954309,2025-10-02 16h50.17.819326 +0530
150,v,43,43,10,v,1,0.4534769,None,,,,,10,43,43,1,345.4141751,,345.3985022,345.4141751,346.3975815,346.3975815,346.3975815,346.3975815,346.4135228,347.4134636,347.4134636,347.8810483,,,,,v,1,0.4534769,None,F5,1,2025-10-02_16h50.09.582,Motor sequence,,2025.1.1,60.12954309,2025-10-02 16h50.17.819326 +0530
50,c,44,44,8,c,1,0.4776303,None,,,,,8,44,44,2,347.8973434,,347.8815711,347.8973434,348.880726,348.880726,348.880726,348.880726,348.8973038,349.8969113,349.8969113,350.3808464,,,,,c,1,0.4776303,None,F5,1,2025-10-02_16h50.09.582,Motor sequence,,2025.1.1,60.12954309,2025-10-02 16h50.17.819326 +0530
50,c,45,45,9,c,1,0.697141,None,,,,,9,45,45,2,350.3971358,,350.3813065,350.3971358,351.3803756,351.3803756,351.3803756,351.3803756,351.3968394,352.3801049,352.3801049,353.080897,,,,,c,1,0.697141,None,F5,1,2025-10-02_16h50.09.582,Motor sequence,,2025.1.1,60.12954309,2025-10-02 16h50.17.819326 +0530
50,c,46,46,10,c,1,0.6447152,None,,,,,10,46,46,2,353.0969527,,353.081371,353.0969527,354.0802719,354.0802719,354.0802719,354.0802719,354.096678,355.0968438,355.0968438,355.7473217,,,,,c,1,0.6447152,None,F5,1,2025-10-02_16h50.09.582,Motor sequence,,2025.1.1,60.12954309,2025-10-02 16h50.17.819326 +0530
50,c,47,47,11,c,1,0.6309411,None,,,,,11,47,47,2,355.7632199,,355.7477841,355.7632199,356.7468466,356.7468466,356.7468466,356.7468466,356.7633054,357.7465754,357.7465754,358.3803865,,,,,c,1,0.6309411,None,F5,1,2025-10-02_16h50.09.582,Motor sequence,,2025.1.1,60.12954309,2025-10-02 16h50.17.819326 +0530
-50,x,48,48,11,x,1,0.6769803,None,,,,,11,48,48,0,358.3966515,,358.3809094,358.3966515,359.3799202,359.3799202,359.3799202,359.3799202,359.396503,360.3797619,360.3797619,361.0636119,,,,,x,1,0.6769803,None,F5,1,2025-10-02_16h50.09.582,Motor sequence,,2025.1.1,60.12954309,2025-10-02 16h50.17.819326 +0530
-50,x,49,49,12,x,1,0.3967785,None,,,,,12,49,49,0,361.0797742,,361.0640626,361.0797742,362.0629331,362.0629331,362.0629331,362.0629331,362.0792726,363.0626823,363.0626823,363.463276,,,,,x,1,0.3967785,None,F5,1,2025-10-02_16h50.09.582,Motor sequence,,2025.1.1,60.12954309,2025-10-02 16h50.17.819326 +0530
50,c,50,50,12,c,1,0.5740591,None,,,,,12,50,50,2,363.4795443,,363.4637434,363.4795443,364.4629043,364.4629043,364.4629043,364.4629043,364.4793877,365.4627752,365.4627752,366.0466696,,,,,c,1,0.5740591,None,F5,1,2025-10-02_16h50.09.582,Motor sequence,,2025.1.1,60.12954309,2025-10-02 16h50.17.819326 +0530
-50,x,51,51,13,x,1,0.3428855,None,,,,,13,51,51,0,366.0628608,,366.0471529,366.0628608,367.0460643,367.0460643,367.0460643,367.0460643,367.0625004,368.0460357,368.0460357,368.3965009,,,,,x,1,0.3428855,None,F5,1,2025-10-02_16h50.09.582,Motor sequence,,2025.1.1,60.12954309,2025-10-02 16h50.17.819326 +0530
150,v,52,52,11,v,1,0.7907817,None,,,,,11,52,52,1,368.412803,,368.396959,368.412803,369.3959721,369.3959721,369.3959721,369.3959721,369.4123496,370.3958007,370.3958007,371.1961783,,,,,v,1,0.7907817,None,F5,1,2025-10-02_16h50.09.582,Motor sequence,,2025.1.1,60.12954309,2025-10-02 16h50.17.819326 +0530
150,v,53,53,12,v,1,0.67807,None,,,,,12,53,53,1,371.2124937,,371.1966591,371.2124937,372.1960976,372.1960976,372.1960976,372.1960976,372.2122251,373.1956995,373.1956995,373.8796283,,,,,v,1,0.67807,None,F5,1,2025-10-02_16h50.09.582,Motor sequence,,2025.1.1,60.12954309,2025-10-02 16h50.17.819326 +0530
50,c,54,54,13,c,1,1.0076269,None,,,,,13,54,54,2,373.8959064,,373.8800864,373.8959064,374.8788227,374.8788227,374.8788227,374.8788227,374.8954284,375.8786967,375.8786967,376.8961737,,,,,c,1,1.0076269,None,F5,1,2025-10-02_16h50.09.582,Motor sequence,,2025.1.1,60.12954309,2025-10-02 16h50.17.819326 +0530
-50,x,55,55,14,x,1,0.5038544,None,,,,,14,55,55,0,376.911909,,376.8966957,376.911909,377.8955062,377.8955062,377.8955062,377.8955062,377.9117847,378.8953444,378.8953444,379.4125526,,,,,x,1,0.5038544,None,F5,1,2025-10-02_16h50.09.582,Motor sequence,,2025.1.1,60.12954309,2025-10-02 16h50.17.819326 +0530
-150,z,56,56,14,z,1,0.6717482,None,,,,,14,56,56,3,379.4285396,,379.4131712,379.4285396,380.4119321,380.4119321,380.4119321,380.4119321,380.4285891,381.4117272,381.4117272,382.0957958,,,,,z,1,0.6717482,None,F5,1,2025-10-02_16h50.09.582,Motor sequence,,2025.1.1,60.12954309,2025-10-02 16h50.17.819326 +0530
-50,x,57,57,15,x,1,0.704741,None,,,,,15,57,57,0,382.1116915,,382.0962526,382.1116915,383.094857,383.094857,383.094857,383.094857,383.1115471,384.0951307,384.0951307,384.8122019,,,,,x,1,0.704741,None,F5,1,2025-10-02_16h50.09.582,Motor sequence,,2025.1.1,60.12954309,2025-10-02 16h50.17.819326 +0530
50,c,58,58,14,c,1,0.4055233,None,,,,,14,58,58,2,384.8286496,,384.8126787,384.8286496,385.811813,385.811813,385.811813,385.811813,385.8282837,386.8115339,386.8115339,387.2288792,,,,,c,1,0.4055233,None,F5,1,2025-10-02_16h50.09.582,Motor sequence,,2025.1.1,60.12954309,2025-10-02 16h50.17.819326 +0530
-50,x,59,59,16,x,1,0.8302927,None,,,,,16,59,59,0,387.2449918,,387.2294014,387.2449918,388.2281771,388.2281771,388.2281771,388.2281771,388.2447538,389.2447101,389.2447101,390.0787661,,,,,x,1,0.8302927,None,F5,1,2025-10-02_16h50.09.582,Motor sequence,,2025.1.1,60.12954309,2025-10-02 16h50.17.819326 +0530
-150,z,60,60,15,z,1,0.683712,None,,,,,15,60,60,3,390.0949444,,390.0791872,390.0949444,391.0780003,391.0780003,391.0780003,391.0780003,391.0945562,392.09454,392.09454,392.7948471,,,,,z,1,0.683712,None,F5,1,2025-10-02_16h50.09.582,Motor sequence,,2025.1.1,60.12954309,2025-10-02 16h50.17.819326 +0530
50,c,61,61,15,c,1,0.5715818,None,,,,,15,61,61,2,392.8113562,,392.7954348,392.8113562,393.7946149,393.7946149,393.7946149,393.7946149,393.811002,394.7944788,394.7944788,395.3782698,,,,,c,1,0.5715818,None,F5,1,2025-10-02_16h50.09.582,Motor sequence,,2025.1.1,60.12954309,2025-10-02 16h50.17.819326 +0530
150,v,62,62,13,v,1,0.5272369,None,,,,,13,62,62,1,395.3944213,,395.3788023,395.3944213,396.377751,396.377751,396.377751,396.377751,396.3942413,397.3774971,397.3774971,397.9115409,,,,,v,1,0.5272369,None,F5,1,2025-10-02_16h50.09.582,Motor sequence,,2025.1.1,60.12954309,2025-10-02 16h50.17.819326 +0530
50,c,63,63,16,c,1,0.4264008,None,,,,,16,63,63,2,397.9274112,,397.9120087,397.9274112,398.9107031,398.9107031,398.9107031,398.9107031,398.9274137,399.9105856,399.9105856,400.3445854,,,,,c,1,0.4264008,None,F5,1,2025-10-02_16h50.09.582,Motor sequence,,2025.1.1,60.12954309,2025-10-02 16h50.17.819326 +0530
-50,x,64,64,17,x,1,0.5795979,None,,,,,17,64,64,0,400.3607287,,400.3450548,400.3607287,401.3441908,401.3441908,401.3441908,401.3441908,401.3605503,402.3439864,402.3439864,402.92762,,,,,x,1,0.5795979,None,F5,1,2025-10-02_16h50.09.582,Motor sequence,,2025.1.1,60.12954309,2025-10-02 16h50.17.819326 +0530
150,v,65,65,14,v,1,0.4186173,None,,,,,14,65,65,1,402.9439407,,402.9280802,402.9439407,403.9273957,403.9273957,403.9273957,403.9273957,403.9438933,404.9270813,404.9270813,405.3609851,,,,,v,1,0.4186173,None,F5,1,2025-10-02_16h50.09.582,Motor sequence,,2025.1.1,60.12954309,2025-10-02 16h50.17.819326 +0530
150,v,66,66,15,v,1,0.6744797,None,,,,,15,66,66,1,405.3771239,,405.3614638,405.3771239,406.3607524,406.3607524,406.3607524,406.3607524,406.3771429,407.3603774,407.3603774,408.044387,,,,,v,1,0.6744797,None,F5,1,2025-10-02_16h50.09.582,Motor sequence,,2025.1.1,60.12954309,2025-10-02 16h50.17.819326 +0530
-150,z,67,67,16,z,1,0.8317979,None,,,,,16,67,67,3,408.0603449,,408.0448947,408.0603449,409.0439164,409.0439164,409.0439164,409.0439164,409.0601893,410.0601309,410.0601309,410.8942806,,,,,z,1,0.8317979,None,F5,1,2025-10-02_16h50.09.582,Motor sequence,,2025.1.1,60.12954309,2025-10-02 16h50.17.819326 +0530
50,c,68,68,17,c,1,0.6073772,None,,,,,17,68,68,2,410.9099556,,410.8947813,410.9099556,411.8938132,411.8938132,411.8938132,411.8938132,411.9096776,412.8932204,412.8932204,413.5105388,,,,,c,1,0.6073772,None,F5,1,2025-10-02_16h50.09.582,Motor sequence,,2025.1.1,60.12954309,2025-10-02 16h50.17.819326 +0530
-150,z,69,69,17,z,1,1.2628855,None,,,,,17,69,69,3,413.5266387,,413.5110069,413.5266387,414.5098975,414.5098975,414.5098975,414.5098975,414.5264442,415.5098831,415.5098831,416.7767129,,,,,z,1,1.2628855,None,F5,1,2025-10-02_16h50.09.582,Motor sequence,,2025.1.1,60.12954309,2025-10-02 16h50.17.819326 +0530
-50,x,70,70,18,x,1,0.7340957,None,,,,,18,70,70,0,416.793039,,416.7771866,416.793039,417.776653,417.776653,417.776653,417.776653,417.7928975,418.7760934,418.7760934,419.5269794,,,,,x,1,0.7340957,None,F5,1,2025-10-02_16h50.09.582,Motor sequence,,2025.1.1,60.12954309,2025-10-02 16h50.17.819326 +0530
-50,x,71,71,19,x,1,0.6153469,None,,,,,19,71,71,0,419.5429855,,419.5274422,419.5429855,420.5262916,420.5262916,420.5262916,420.5262916,420.5427569,421.5427983,421.5427983,422.1598798,,,,,x,1,0.6153469,None,F5,1,2025-10-02_16h50.09.582,Motor sequence,,2025.1.1,60.12954309,2025-10-02 16h50.17.819326 +0530
-150,z,72,72,18,z,1,0.8170413,None,,,,,18,72,72,3,422.1762859,,422.1603335,422.1762859,423.1595066,423.1595066,423.1595066,423.1595066,423.1758949,424.1591361,424.1591361,424.9930271,,,,,z,1,0.8170413,None,F5,1,2025-10-02_16h50.09.582,Motor sequence,,2025.1.1,60.12954309,2025-10-02 16h50.17.819326 +0530
-50,x,73,73,20,x,1,0.4346429,None,,,,,20,73,73,0,425.0090572,,424.9934877,425.0090572,425.9927433,425.9927433,425.9927433,425.9927433,426.0089796,427.0086802,427.0086802,427.4595385,,,,,x,1,0.4346429,None,F5,1,2025-10-02_16h50.09.582,Motor sequence,,2025.1.1,60.12954309,2025-10-02 16h50.17.819326 +0530
-150,z,74,74,19,z,1,0.588338,None,,,,,19,74,74,3,427.4759865,,427.4600149,427.4759865,428.4588379,428.4588379,428.4588379,428.4588379,428.4754107,429.4589365,429.4589365,430.0592007,,,,,z,1,0.588338,None,F5,1,2025-10-02_16h50.09.582,Motor sequence,,2025.1.1,60.12954309,2025-10-02 16h50.17.819326 +0530
50,c,75,75,18,c,1,0.6097663,None,,,,,18,75,75,2,430.0755504,,430.0596696,430.0755504,431.058359,431.058359,431.058359,431.058359,431.0749743,432.0749209,432.0749209,432.6922153,,,,,c,1,0.6097663,None,F5,1,2025-10-02_16h50.09.582,Motor sequence,,2025.1.1,60.12954309,2025-10-02 16h50.17.819326 +0530
150,v,76,76,16,v,1,0.654834,None,,,,,16,76,76,1,432.7087133,,432.6927281,432.7087133,433.6921328,433.6921328,433.6921328,433.6921328,433.7083681,434.691675,434.691675,435.3586156,,,,,v,1,0.654834,None,F5,1,2025-10-02_16h50.09.582,Motor sequence,,2025.1.1,60.12954309,2025-10-02 16h50.17.819326 +0530
150,v,77,77,17,v,1,0.5211301,None,,,,,17,77,77,1,435.3750975,,435.358987,435.3750975,436.3585002,436.3585002,436.3585002,436.3585002,436.3748327,437.3581836,437.3581836,437.8921354,,,,,v,1,0.5211301,None,F5,1,2025-10-02_16h50.09.582,Motor sequence,,2025.1.1,60.12954309,2025-10-02 16h50.17.819326 +0530
-50,x,78,78,21,x,1,0.7106996,None,,,,,21,78,78,0,437.9081302,,437.8924877,437.9081302,438.8915296,438.8915296,438.8915296,438.8915296,438.90786,439.8913607,439.8913607,440.6081838,,,,,x,1,0.7106996,None,F5,1,2025-10-02_16h50.09.582,Motor sequence,,2025.1.1,60.12954309,2025-10-02 16h50.17.819326 +0530
150,v,79,79,18,v,1,0.4766049,None,,,,,18,79,79,1,440.6248274,,440.6085288,440.6248274,441.6079264,441.6079264,441.6079264,441.6079264,441.6243853,442.6077066,442.6077066,443.0920054,,,,,v,1,0.4766049,None,F5,1,2025-10-02_16h50.09.582,Motor sequence,,2025.1.1,60.12954309,2025-10-02 16h50.17.819326 +0530
50,c,80,80,19,c,1,0.5040742,None,,,,,19,80,80,2,443.1078984,,443.0926938,443.1078984,444.0915197,444.0915197,444.0915197,444.0915197,444.1077732,445.1077184,445.1077184,445.6247712,,,,,c,1,0.5040742,None,F5,1,2025-10-02_16h50.09.582,Motor sequence,,2025.1.1,60.12954309,2025-10-02 16h50.17.819326 +0530
-50,x,81,81,22,x,1,0.4900226,None,,,,,22,81,81,0,445.6411268,,445.6250478,445.6411268,446.6244611,446.6244611,446.6244611,446.6244611,446.6409134,447.6241631,447.6241631,448.1245968,,,,,x,1,0.4900226,None,F5,1,2025-10-02_16h50.09.582,Motor sequence,,2025.1.1,60.12954309,2025-10-02 16h50.17.819326 +0530
-50,x,82,82,23,x,1,0.6337481,None,,,,,23,82,82,0,448.1410315,,448.1248843,448.1410315,449.1243829,449.1243829,449.1243829,449.1243829,449.1405902,450.1240227,450.1240227,450.7743307,,,,,x,1,0.6337481,None,F5,1,2025-10-02_16h50.09.582,Motor sequence,,2025.1.1,60.12954309,2025-10-02 16h50.17.819326 +0530
50,c,83,83,20,c,1,0.6058057,None,,,,,20,83,83,2,450.7907968,,450.7747301,450.7907968,451.7740696,451.7740696,451.7740696,451.7740696,451.790684,452.7738815,452.7738815,453.3909396,,,,,c,1,0.6058057,None,F5,1,2025-10-02_16h50.09.582,Motor sequence,,2025.1.1,60.12954309,2025-10-02 16h50.17.819326 +0530
150,v,84,84,19,v,1,0.5169828,None,,,,,19,84,84,1,453.4072117,,453.3914115,453.4072117,454.390572,454.390572,454.390572,454.390572,454.4069408,455.3904044,455.3904044,455.9242513,,,,,v,1,0.5169828,None,F5,1,2025-10-02_16h50.09.582,Motor sequence,,2025.1.1,60.12954309,2025-10-02 16h50.17.819326 +0530
150,v,85,85,20,v,1,0.5813578,None,,,,,20,85,85,1,455.9405888,,455.9246378,455.9405888,456.9238229,456.9238229,456.9238229,456.9238229,456.9401641,457.9236253,457.9236253,458.5074979,,,,,v,1,0.5813578,None,F5,1,2025-10-02_16h50.09.582,Motor sequence,,2025.1.1,60.12954309,2025-10-02 16h50.17.819326 +0530
-150,z,86,86,20,z,1,0.8112101,None,,,,,20,86,86,3,458.5237723,,458.5079471,458.5237723,459.5072135,459.5072135,459.5072135,459.5072135,459.5234653,460.506654,460.506654,461.3239219,,,,,z,1,0.8112101,None,F5,1,2025-10-02_16h50.09.582,Motor sequence,,2025.1.1,60.12954309,2025-10-02 16h50.17.819326 +0530
-50,x,87,87,24,x,1,1.0773858,None,,,,,24,87,87,0,461.3399827,,461.324391,461.3399827,462.3234416,462.3234416,462.3234416,462.3234416,462.3399882,463.3232802,463.3232802,464.4070354,,,,,x,1,1.0773858,None,F5,1,2025-10-02_16h50.09.582,Motor sequence,,2025.1.1,60.12954309,2025-10-02 16h50.17.819326 +0530
-150,z,88,88,21,z,1,0.7477376,None,,,,,21,88,88,3,464.4233087,,464.4072866,464.4233087,465.4066563,465.4066563,465.4066563,465.4066563,465.4230259,466.4061452,466.4061452,467.1566522,,,,,z,1,0.7477376,None,F5,1,2025-10-02_16h50.09.582,Motor sequence,,2025.1.1,60.12954309,2025-10-02 16h50.17.819326 +0530
-150,z,89,89,22,z,1,0.4951431,None,,,,,22,89,89,3,467.1731868,,467.1570021,467.1731868,468.1561911,468.1561911,468.1561911,468.1561911,468.1728212,469.1560583,469.1560583,469.6565476,,,,,z,1,0.4951431,None,F5,1,2025-10-02_16h50.09.582,Motor sequence,,2025.1.1,60.12954309,2025-10-02 16h50.17.819326 +0530
150,v,90,90,21,v,1,0.4625504,None,,,,,21,90,90,1,469.6729735,,469.6569321,469.6729735,470.6562088,470.6562088,470.6562088,470.6562088,470.672743,471.6559649,471.6559649,472.1228976,,,,,v,1,0.4625504,None,F5,1,2025-10-02_16h50.09.582,Motor sequence,,2025.1.1,60.12954309,2025-10-02 16h50.17.819326 +0530
50,c,91,91,21,c,1,0.6346191,None,,,,,21,91,91,2,472.13941,,472.1232077,472.13941,473.1228097,473.1228097,473.1228097,473.1228097,473.1393083,474.1226019,474.1226019,474.7731104,,,,,c,1,0.6346191,None,F5,1,2025-10-02_16h50.09.582,Motor sequence,,2025.1.1,60.12954309,2025-10-02 16h50.17.819326 +0530
150,v,92,92,22,v,1,0.5463896,None,,,,,22,92,92,1,474.789311,,474.7735193,474.789311,475.7726326,475.7726326,475.7726326,475.7726326,475.7890386,476.7723352,476.7723352,477.3227921,,,,,v,1,0.5463896,None,F5,1,2025-10-02_16h50.09.582,Motor sequence,,2025.1.1,60.12954309,2025-10-02 16h50.17.819326 +0530
-150,z,93,93,23,z,1,0.3946915,None,,,,,23,93,93,3,477.3391092,,477.3233122,477.3391092,478.3227424,478.3227424,478.3227424,478.3227424,478.3389191,479.3222976,479.3222976,479.7228222,,,,,z,1,0.3946915,None,F5,1,2025-10-02_16h50.09.582,Motor sequence,,2025.1.1,60.12954309,2025-10-02 16h50.17.819326 +0530
50,c,94,94,22,c,1,0.5413543,None,,,,,22,94,94,2,479.7389963,,479.7232746,479.7389963,480.7223982,480.7223982,480.7223982,480.7223982,480.7389868,481.7220685,481.7220685,482.2725494,,,,,c,1,0.5413543,None,F5,1,2025-10-02_16h50.09.582,Motor sequence,,2025.1.1,60.12954309,2025-10-02 16h50.17.819326 +0530
50,c,95,95,23,c,1,0.5592914,None,,,,,23,95,95,2,482.2887644,,482.2729179,482.2887644,483.2721471,483.2721471,483.2721471,483.2721471,483.2885717,484.2718478,484.2718478,484.838894,,,,,c,1,0.5592914,None,F5,1,2025-10-02_16h50.09.582,Motor sequence,,2025.1.1,60.12954309,2025-10-02 16h50.17.819326 +0530
150,v,96,96,23,v,1,0.5151817,None,,,,,23,96,96,1,484.8557149,,484.8392101,484.8557149,485.8387314,485.8387314,485.8387314,485.8387314,485.8550967,486.8383632,486.8383632,487.3555391,,,,,v,1,0.5151817,None,F5,1,2025-10-02_16h50.09.582,Motor sequence,,2025.1.1,60.12954309,2025-10-02 16h50.17.819326 +0530
-150,z,97,97,24,z,1,0.5765395,None,,,,,24,97,97,3,487.3719343,,487.3559517,487.3719343,488.3551601,488.3551601,488.3551601,488.3551601,488.3719667,489.354531,489.354531,489.9386952,,,,,z,1,0.5765395,None,F5,1,2025-10-02_16h50.09.582,Motor sequence,,2025.1.1,60.12954309,2025-10-02 16h50.17.819326 +0530
150,v,98,98,24,v,1,0.4052314,None,,,,,24,98,98,1,489.9550555,,489.9390151,489.9550555,490.9384593,490.9384593,490.9384593,490.9384593,490.9546726,491.9381388,491.9381388,492.3549782,,,,,v,1,0.4052314,None,F5,1,2025-10-02_16h50.09.582,Motor sequence,,2025.1.1,60.12954309,2025-10-02 16h50.17.819326 +0530
50,c,99,99,24,c,1,0.6215975,None,,,,,24,99,99,2,492.3716413,,492.3553056,492.3716413,493.3548835,493.3548835,493.3548835,493.3548835,493.3712047,494.3544855,494.3544855,494.9885746,,,,,c,1,0.6215975,None,F5,1,2025-10-02_16h50.09.582,Motor sequence,,2025.1.1,60.12954309,2025-10-02 16h50.17.819326 +0530
