Face_file,Sound_file,Face_emotion,Sound_emotion,Congruency,corr_resp,thisN,thisTrialN,thisRepN,key_resp.keys,key_resp.corr,key_resp.rt,key_resp.duration,trials.thisRepN,trials.thisTrialN,trials.thisN,trials.thisIndex,thisRow.t,notes,Instruction.started,key_instruct.started,Instruction.stopped,key_instruct.keys,key_instruct.rt,key_instruct.duration,trial.started,Fixation.started,Image.started,key_resp.started,Sound.started,Fixation.stopped,Sound.stopped,Image.stopped,trial.stopped,trials.key_resp.keys,trials.key_resp.corr,trials.key_resp.rt,trials.key_resp.duration,participant,session,date,expName,expVersion,psychopyVersion,frameRate,expStart
Face_file/Sad.jpg,Sound_file/Sad.wav,Sad,Sad,C,s,2,2,0,s,1,1.63678,None,0,2,2,2,28.8150001,,,,,,,,28.8127374,28.8150001,29.269846,29.269846,29.26991677,29.3199695,,,30.9205543,s,1,1.63678,None,P1,1,2025-11-19_16h48.21.250,Final Solo Project Psy310,,2025.1.1,59.98883008,2025-11-19 16h48.29.689644 +0530
Face_file/Anger.jpg,Sound_file/Anger.wav,Anger,Anger,C,a,6,6,0,a,1,1.4792464,None,0,6,6,0,37.7028973,,,,,,,,37.6907982,37.7028973,38.0359947,38.0359947,38.03584227,38.2024071,,,39.5202314,a,1,1.4792464,None,P1,1,2025-11-19_16h48.21.250,Final Solo Project Psy310,,2025.1.1,59.98883008,2025-11-19 16h48.29.689644 +0530
Face_file/Happy.jpg,Sound_file/Happy.wav,Happy,Happy,C,h,8,8,0,h,1,1.1628273,None,0,8,8,1,42.0416235,,,,,,,,42.0326289,42.0416235,42.3865782,42.3865782,42.38574737,42.5530534,,,43.5537866,h,1,1.1628273,None,P1,1,2025-11-19_16h48.21.250,Final Solo Project Psy310,,2025.1.1,59.98883008,2025-11-19 16h48.29.689644 +0530
Face_file/Sad.jpg,Sound_file/Sad.wav,Sad,Sad,C,s,10,1,1,s,1,1.3741674,None,1,1,10,2,46.1303061,,,,,,,,46.1174114,46.1303061,46.5856896,46.5856896,46.58550007,46.63567,,,47.9694223,s,1,1.3741674,None,P1,1,2025-11-19_16h48.21.250,Final Solo Project Psy310,,2025.1.1,59.98883008,2025-11-19 16h48.29.689644 +0530
Face_file/Happy.jpg,Sound_file/Happy.wav,Happy,Happy,C,h,12,3,1,h,1,0.9575482,None,1,3,12,1,50.1052928,,,,,,,,50.095428,50.1052928,50.4360312,50.4360312,50.43532857,50.6191395,,,51.4032484,h,1,0.9575482,None,P1,1,2025-11-19_16h48.21.250,Final Solo Project Psy310,,2025.1.1,59.98883008,2025-11-19 16h48.29.689644 +0530
Face_file/Anger.jpg,Sound_file/Anger.wav,Anger,Anger,C,a,13,4,1,a,1,1.4453967,None,1,4,13,0,51.5906478,,,,,,,,51.5777027,51.5906478,51.9353822,51.9353822,51.93498307,52.101717,,,53.3857557,a,1,1.4453967,None,P1,1,2025-11-19_16h48.21.250,Final Solo Project Psy310,,2025.1.1,59.98883008,2025-11-19 16h48.29.689644 +0530
Face_file/Happy.jpg,Sound_file/Happy.wav,Happy,Happy,C,h,19,1,2,h,1,1.2367604,None,2,1,19,1,64.8956766,,,,,,,,64.8873257,64.8956766,65.2183954,65.2183954,65.21762207,65.4014357,,,66.4689896,h,1,1.2367604,None,P1,1,2025-11-19_16h48.21.250,Final Solo Project Psy310,,2025.1.1,59.98883008,2025-11-19 16h48.29.689644 +0530
Face_file/Sad.jpg,Sound_file/Sad.wav,Sad,Sad,C,s,20,2,2,s,1,0.8717524,None,2,2,20,2,66.521306,,,,,,,,66.5083151,66.521306,66.9844166,66.9844166,66.98407707,67.0343094,,,67.8682828,s,1,0.8717524,None,P1,1,2025-11-19_16h48.21.250,Final Solo Project Psy310,,2025.1.1,59.98883008,2025-11-19 16h48.29.689644 +0530
Face_file/Anger.jpg,Sound_file/Anger.wav,Anger,Anger,C,a,23,5,2,a,1,1.1314175,None,2,5,23,0,72.5779373,,,,,,,,72.5749113,72.5779373,72.9171475,72.9171475,72.91705727,73.0838618,,,74.0511595,a,1,1.1314175,None,P1,1,2025-11-19_16h48.21.250,Final Solo Project Psy310,,2025.1.1,59.98883008,2025-11-19 16h48.29.689644 +0530
Face_file/Happy.jpg,Sound_file/Happy.wav,Happy,Happy,C,h,27,0,3,h,1,1.2831508,None,3,0,27,1,79.3573326,,,,,,,,79.349005,79.3573326,79.6675406,79.6675406,79.66681057,79.8671675,,,80.9515241,h,1,1.2831508,None,P1,1,2025-11-19_16h48.21.250,Final Solo Project Psy310,,2025.1.1,59.98883008,2025-11-19 16h48.29.689644 +0530
Face_file/Sad.jpg,Sound_file/Sad.wav,Sad,Sad,C,s,28,1,3,a,0,2.2231081,None,3,1,28,2,81.008509,,,,,,,,80.996621,81.008509,81.4668354,81.4668354,81.46668217,81.516628,83.4662228,83.4662228,83.7001992,a,0,2.2231081,None,P1,1,2025-11-19_16h48.21.250,Final Solo Project Psy310,,2025.1.1,59.98883008,2025-11-19 16h48.29.689644 +0530
Face_file/Anger.jpg,Sound_file/Anger.wav,Anger,Anger,C,a,33,6,3,a,1,1.1663339,None,3,6,33,0,93.0232899,,,,,,,,93.0111195,93.0232899,93.3491912,93.3491912,93.34926607,93.5325868,,,94.5166424,a,1,1.1663339,None,P1,1,2025-11-19_16h48.21.250,Final Solo Project Psy310,,2025.1.1,59.98883008,2025-11-19 16h48.29.689644 +0530
Face_file/Anger.jpg,Sound_file/Anger.wav,Anger,Anger,C,a,38,2,4,a,1,1.2209202,None,4,2,38,0,103.5357298,,,,,,,,103.5336635,103.5357298,103.8821479,103.8821479,103.8817681,104.0486106,,,105.115831,a,1,1.2209202,None,P1,1,2025-11-19_16h48.21.250,Final Solo Project Psy310,,2025.1.1,59.98883008,2025-11-19 16h48.29.689644 +0530
Face_file/Happy.jpg,Sound_file/Happy.wav,Happy,Happy,C,h,42,6,4,h,1,1.0885569,None,4,6,42,1,110.3624177,,,,,,,,110.3527595,110.3624177,110.6822566,110.6822566,110.6813981,110.8653788,,,111.7825888,h,1,1.0885569,None,P1,1,2025-11-19_16h48.21.250,Final Solo Project Psy310,,2025.1.1,59.98883008,2025-11-19 16h48.29.689644 +0530
Face_file/Sad.jpg,Sound_file/Sad.wav,Sad,Sad,C,s,43,7,4,s,1,1.6292585,None,4,7,43,2,111.8255076,,,,,,,,111.812281,111.8255076,112.2978559,112.2978559,112.2977758,112.3311674,,,113.9316924,s,1,1.6292585,None,P1,1,2025-11-19_16h48.21.250,Final Solo Project Psy310,,2025.1.1,59.98883008,2025-11-19 16h48.29.689644 +0530
Face_file/Happy.jpg,Sound_file/Happy.wav,Happy,Happy,C,h,46,1,5,h,1,2.8406218,None,5,1,46,1,118.426142,,,,,,,,118.4177024,118.426142,118.7650845,118.7650845,118.7642491,118.9318333,120.7744681,120.7744681,121.6145521,h,1,2.8406218,None,P1,1,2025-11-19_16h48.21.250,Final Solo Project Psy310,,2025.1.1,59.98883008,2025-11-19 16h48.29.689644 +0530
Face_file/Sad.jpg,Sound_file/Sad.wav,Sad,Sad,C,s,47,2,5,s,1,2.2796418,None,5,2,47,2,121.6508054,,,,,,,,121.6385303,121.6508054,122.1141967,122.1141967,122.114171,122.1640968,124.1185544,124.1185544,124.3978862,s,1,2.2796418,None,P1,1,2025-11-19_16h48.21.250,Final Solo Project Psy310,,2025.1.1,59.98883008,2025-11-19 16h48.29.689644 +0530
Face_file/Anger.jpg,Sound_file/Anger.wav,Anger,Anger,C,a,48,3,5,a,1,1.7187282,None,5,3,48,0,124.5618503,,,,,,,,124.558409,124.5618503,124.8973881,124.8973881,124.8971212,125.063792,,,126.6307327,a,1,1.7187282,None,P1,1,2025-11-19_16h48.21.250,Final Solo Project Psy310,,2025.1.1,59.98883008,2025-11-19 16h48.29.689644 +0530
Face_file/Sad.jpg,Sound_file/Sad.wav,Sad,Sad,C,s,54,0,6,s,1,1.2473718,None,6,0,54,2,134.4392672,,,,,,,,134.4366685,134.4392672,134.9301502,134.9301502,134.9297842,134.9465679,,,136.1805582,s,1,1.2473718,None,P1,1,2025-11-19_16h48.21.250,Final Solo Project Psy310,,2025.1.1,59.98883008,2025-11-19 16h48.29.689644 +0530
Face_file/Happy.jpg,Sound_file/Happy.wav,Happy,Happy,C,h,59,5,6,h,1,1.2481381,None,6,5,59,1,143.6001545,,,,,,,,143.5912769,143.6001545,143.9300513,143.9300513,143.9293799,144.1133354,,,145.1804489,h,1,1.2481381,None,P1,1,2025-11-19_16h48.21.250,Final Solo Project Psy310,,2025.1.1,59.98883008,2025-11-19 16h48.29.689644 +0530
Face_file/Anger.jpg,Sound_file/Anger.wav,Anger,Anger,C,a,61,7,6,a,1,1.1509497,None,6,7,61,0,148.5585999,,,,,,,,148.5562632,148.5585999,148.9126224,148.9126224,148.9124151,149.0624883,,,150.0793049,a,1,1.1509497,None,P1,1,2025-11-19_16h48.21.250,Final Solo Project Psy310,,2025.1.1,59.98883008,2025-11-19 16h48.29.689644 +0530
Face_file/Anger.jpg,Sound_file/Anger.wav,Anger,Anger,C,a,65,2,7,a,1,1.4622644,None,7,2,65,0,156.0381131,,,,,,,,156.0264779,156.0381131,156.3619854,156.3619854,156.3619664,156.5450477,,,157.8294019,a,1,1.4622644,None,P1,1,2025-11-19_16h48.21.250,Final Solo Project Psy310,,2025.1.1,59.98883008,2025-11-19 16h48.29.689644 +0530
Face_file/Happy.jpg,Sound_file/Happy.wav,Happy,Happy,C,h,67,4,7,h,1,1.3180577,None,7,4,67,1,159.8458661,,,,,,,,159.8370898,159.8458661,160.1790203,160.1790203,160.178433,160.3455587,,,161.5130001,h,1,1.3180577,None,P1,1,2025-11-19_16h48.21.250,Final Solo Project Psy310,,2025.1.1,59.98883008,2025-11-19 16h48.29.689644 +0530
Face_file/Sad.jpg,Sound_file/Sad.wav,Sad,Sad,C,s,71,8,7,s,1,0.9618349,None,7,8,71,2,166.5028337,,,,,,,,166.5006783,166.5028337,166.978099,166.978099,166.9780399,167.0114471,,,167.9452549,s,1,0.9618349,None,P1,1,2025-11-19_16h48.21.250,Final Solo Project Psy310,,2025.1.1,59.98883008,2025-11-19 16h48.29.689644 +0530
Face_file/Anger.jpg,Sound_file/Anger.wav,Anger,Anger,C,a,75,3,8,a,1,1.1328974,None,8,3,75,0,173.3971757,,,,,,,,173.3850873,173.3971757,173.711234,173.711234,173.7109472,173.9109158,,,174.8449175,a,1,1.1328974,None,P1,1,2025-11-19_16h48.21.250,Final Solo Project Psy310,,2025.1.1,59.98883008,2025-11-19 16h48.29.689644 +0530
Face_file/Happy.jpg,Sound_file/Happy.wav,Happy,Happy,C,h,77,5,8,h,1,0.8435398,None,8,5,77,1,176.3513069,,,,,,,,176.3423005,176.3513069,176.6781147,176.6781147,176.677262,176.861284,,,177.5287538,h,1,0.8435398,None,P1,1,2025-11-19_16h48.21.250,Final Solo Project Psy310,,2025.1.1,59.98883008,2025-11-19 16h48.29.689644 +0530
Face_file/Sad.jpg,Sound_file/Sad.wav,Sad,Sad,C,s,79,7,8,s,1,2.2923739,None,8,7,79,2,179.4680557,,,,,,,,179.4651548,179.4680557,179.9441856,179.9441856,179.9439071,179.9772156,181.9465411,181.9465411,182.2443377,s,1,2.2923739,None,P1,1,2025-11-19_16h48.21.250,Final Solo Project Psy310,,2025.1.1,59.98883008,2025-11-19 16h48.29.689644 +0530
Face_file/Happy.jpg,Sound_file/Happy.wav,Happy,Happy,C,h,82,1,9,h,1,0.9621109,None,9,1,82,1,185.7339365,,,,,,,,185.7251278,185.7339365,186.0607555,186.0607555,186.0600169,186.2443011,,,187.0282866,h,1,0.9621109,None,P1,1,2025-11-19_16h48.21.250,Final Solo Project Psy310,,2025.1.1,59.98883008,2025-11-19 16h48.29.689644 +0530
Face_file/Anger.jpg,Sound_file/Anger.wav,Anger,Anger,C,a,85,4,9,a,1,1.1865635,None,9,4,85,0,191.1091397,,,,,,,,191.0965852,191.1091397,191.4433072,191.4433072,191.4431527,191.6098108,,,192.6438583,a,1,1.1865635,None,P1,1,2025-11-19_16h48.21.250,Final Solo Project Psy310,,2025.1.1,59.98883008,2025-11-19 16h48.29.689644 +0530
Face_file/Sad.jpg,Sound_file/Sad.wav,Sad,Sad,C,s,87,6,9,s,1,1.0876237,None,9,6,87,2,194.2353225,,,,,,,,194.232183,194.2353225,194.7263066,194.7263066,194.7261236,194.742732,,,195.8269709,s,1,1.0876237,None,P1,1,2025-11-19_16h48.21.250,Final Solo Project Psy310,,2025.1.1,59.98883008,2025-11-19 16h48.29.689644 +0530
Face_file/Anger.jpg,Sound_file/Anger.wav,Anger,Anger,C,a,94,4,10,a,1,2.0465275,None,10,4,94,0,207.5973394,,,,,,,,207.5844553,207.5973394,207.9087422,207.9087422,207.9088484,208.10874,209.9184128,209.9184128,209.9591165,a,1,2.0465275,None,P1,1,2025-11-19_16h48.21.250,Final Solo Project Psy310,,2025.1.1,59.98883008,2025-11-19 16h48.29.689644 +0530
Face_file/Sad.jpg,Sound_file/Sad.wav,Sad,Sad,C,s,95,5,10,a,0,2.2347194,None,10,5,95,2,209.9883875,,,,,,,,209.9848384,209.9883875,210.4586341,210.4586341,210.4583854,210.4920976,212.4625088,212.4625088,212.7093939,a,0,2.2347194,None,P1,1,2025-11-19_16h48.21.250,Final Solo Project Psy310,,2025.1.1,59.98883008,2025-11-19 16h48.29.689644 +0530
Face_file/Happy.jpg,Sound_file/Happy.wav,Happy,Happy,C,h,96,6,10,h,1,1.1822271,None,10,6,96,1,212.9142274,,,,,,,,212.9045704,212.9142274,213.2090365,213.2090365,213.2085233,213.4257182,,,214.3932159,h,1,1.1822271,None,P1,1,2025-11-19_16h48.21.250,Final Solo Project Psy310,,2025.1.1,59.98883008,2025-11-19 16h48.29.689644 +0530
Face_file/Sad.jpg,Sound_file/Sad.wav,Sad,Sad,C,s,100,1,11,s,1,0.8210812,None,11,1,100,2,219.8746302,,,,,,,,219.8714702,219.8746302,220.357989,220.357989,220.3579479,220.3745553,,,221.1921265,s,1,0.8210812,None,P1,1,2025-11-19_16h48.21.250,Final Solo Project Psy310,,2025.1.1,59.98883008,2025-11-19 16h48.29.689644 +0530
Face_file/Happy.jpg,Sound_file/Happy.wav,Happy,Happy,C,h,102,3,11,h,1,1.0595797,None,11,3,102,1,223.0404304,,,,,,,,223.0304714,223.0404304,223.3587529,223.3587529,223.3577416,223.5417056,,,224.4258057,h,1,1.0595797,None,P1,1,2025-11-19_16h48.21.250,Final Solo Project Psy310,,2025.1.1,59.98883008,2025-11-19 16h48.29.689644 +0530
Face_file/Anger.jpg,Sound_file/Anger.wav,Anger,Anger,C,a,106,7,11,a,1,1.5706992,None,11,7,106,0,229.4108901,,,,,,,,229.3985846,229.4108901,229.7406488,229.7406488,229.7408645,229.9243223,,,231.3247393,a,1,1.5706992,None,P1,1,2025-11-19_16h48.21.250,Final Solo Project Psy310,,2025.1.1,59.98883008,2025-11-19 16h48.29.689644 +0530
Face_file/Anger.jpg,Sound_file/Happy.wav,Anger,Happy,I,h,0,0,0,h,1,2.9447544,None,0,0,0,5,22.7679153,,,,,,,,22.7623233,22.7679153,23.1712536,23.1712536,23.17006047,23.2701245,25.1701749,25.1869047,26.1207007,h,1,2.9447544,None,P1,1,2025-11-19_16h48.21.250,Final Solo Project Psy310,,2025.1.1,59.98883008,2025-11-19 16h48.29.689644 +0530
Face_file/Anger.jpg,Sound_file/Sad.wav,Anger,Sad,I,s,1,1,0,s,1,2.1437032,None,0,1,1,7,26.1764903,,,,,,,,26.1740817,26.1764903,26.6201049,26.6201049,26.61990037,26.6867815,28.6244459,28.6244459,28.7703014,s,1,2.1437032,None,P1,1,2025-11-19_16h48.21.250,Final Solo Project Psy310,,2025.1.1,59.98883008,2025-11-19 16h48.29.689644 +0530
Face_file/Happy.jpg,Sound_file/Anger.wav,Happy,Anger,I,a,3,3,0,a,1,1.715205,None,0,3,3,3,31.3581643,,,,,,,,31.3482541,31.3581643,31.453579,31.453579,31.45299737,31.870358,,,33.1708388,a,1,1.715205,None,P1,1,2025-11-19_16h48.21.250,Final Solo Project Psy310,,2025.1.1,59.98883008,2025-11-19 16h48.29.689644 +0530
Face_file/Sad.jpg,Sound_file/Anger.wav,Sad,Anger,I,a,4,4,0,a,1,1.3540372,None,0,4,4,4,33.4507475,,,,,,,,33.4479807,33.4507475,33.6864689,33.6864689,33.68631257,33.9531662,,,35.0533509,a,1,1.3540372,None,P1,1,2025-11-19_16h48.21.250,Final Solo Project Psy310,,2025.1.1,59.98883008,2025-11-19 16h48.29.689644 +0530
Face_file/Happy.jpg,Sound_file/Sad.wav,Happy,Sad,I,s,5,5,0,s,1,1.9176799,None,0,5,5,8,35.2455592,,,,,,,,35.235867,35.2455592,35.5702093,35.5702093,35.56914877,35.7533595,,,37.5039243,s,1,1.9176799,None,P1,1,2025-11-19_16h48.21.250,Final Solo Project Psy310,,2025.1.1,59.98883008,2025-11-19 16h48.29.689644 +0530
Face_file/Sad.jpg,Sound_file/Happy.wav,Sad,Happy,I,h,7,7,0,h,1,1.8314641,None,0,7,7,6,39.5797763,,,,,,,,39.576559,39.5797763,40.0361246,40.0361246,40.03594107,40.0859112,,,41.869728,h,1,1.8314641,None,P1,1,2025-11-19_16h48.21.250,Final Solo Project Psy310,,2025.1.1,59.98883008,2025-11-19 16h48.29.689644 +0530
Face_file/Happy.jpg,Sound_file/Sad.wav,Happy,Sad,I,s,9,0,1,s,1,1.9761958,None,1,0,9,8,43.7297557,,,,,,,,43.7214056,43.7297557,44.0864865,44.0864865,44.08545587,44.2364278,46.1303061,46.1303061,46.0832107,s,1,1.9761958,None,P1,1,2025-11-19_16h48.21.250,Final Solo Project Psy310,,2025.1.1,59.98883008,2025-11-19 16h48.29.689644 +0530
Face_file/Anger.jpg,Sound_file/Happy.wav,Anger,Happy,I,h,11,2,1,h,1,1.414309,None,1,2,11,5,48.0507603,,,,,,,,48.0470318,48.0507603,48.5022949,48.5022949,48.50223757,48.5521688,,,49.9192407,h,1,1.414309,None,P1,1,2025-11-19_16h48.21.250,Final Solo Project Psy310,,2025.1.1,59.98883008,2025-11-19 16h48.29.689644 +0530
Face_file/Sad.jpg,Sound_file/Anger.wav,Sad,Anger,I,a,14,5,1,a,1,1.3543976,None,1,5,14,4,53.5594757,,,,,,,,53.5540109,53.5594757,53.9182439,53.9182439,53.91814437,54.0682977,,,55.2857043,a,1,1.3543976,None,P1,1,2025-11-19_16h48.21.250,Final Solo Project Psy310,,2025.1.1,59.98883008,2025-11-19 16h48.29.689644 +0530
Face_file/Anger.jpg,Sound_file/Sad.wav,Anger,Sad,I,s,15,6,1,s,1,1.3484118,None,1,6,15,7,55.3351721,,,,,,,,55.332034,55.3351721,55.8017539,55.8017539,55.80177997,55.8351012,,,57.1524637,s,1,1.3484118,None,P1,1,2025-11-19_16h48.21.250,Final Solo Project Psy310,,2025.1.1,59.98883008,2025-11-19 16h48.29.689644 +0530
Face_file/Sad.jpg,Sound_file/Happy.wav,Sad,Happy,I,h,16,7,1,h,1,1.3168479,None,1,7,16,6,57.2095194,,,,,,,,57.2057549,57.2095194,57.6846642,57.6846642,57.68461307,57.7180422,,,59.0022489,h,1,1.3168479,None,P1,1,2025-11-19_16h48.21.250,Final Solo Project Psy310,,2025.1.1,59.98883008,2025-11-19 16h48.29.689644 +0530
Face_file/Happy.jpg,Sound_file/Anger.wav,Happy,Anger,I,a,17,8,1,a,1,1.649074,None,1,8,17,3,59.3063144,,,,,,,,59.2971095,59.3063144,59.5353871,59.5353871,59.53428257,59.8186602,,,61.1861921,a,1,1.649074,None,P1,1,2025-11-19_16h48.21.250,Final Solo Project Psy310,,2025.1.1,59.98883008,2025-11-19 16h48.29.689644 +0530
Face_file/Happy.jpg,Sound_file/Sad.wav,Happy,Sad,I,s,18,0,2,s,1,2.9900645,None,2,0,18,8,61.3601915,,,,,,,,61.3517392,61.3601915,61.7186207,61.7186207,61.71812527,61.8686686,63.7267711,63.7267711,64.7182953,s,1,2.9900645,None,P1,1,2025-11-19_16h48.21.250,Final Solo Project Psy310,,2025.1.1,59.98883008,2025-11-19 16h48.29.689644 +0530
Face_file/Anger.jpg,Sound_file/Happy.wav,Anger,Happy,I,h,21,3,2,h,1,1.1092362,None,2,3,21,5,67.9377891,,,,,,,,67.9348238,67.9377891,68.3840319,68.3840319,68.38412107,68.450658,,,69.5013921,h,1,1.1092362,None,P1,1,2025-11-19_16h48.21.250,Final Solo Project Psy310,,2025.1.1,59.98883008,2025-11-19 16h48.29.689644 +0530
Face_file/Sad.jpg,Sound_file/Anger.wav,Sad,Anger,I,a,22,4,2,a,1,2.3670929,None,2,4,22,4,69.6769504,,,,,,,,69.6715603,69.6769504,70.034136,70.034136,70.03397157,70.1840105,72.0429729,72.0429729,72.4177287,a,1,2.3670929,None,P1,1,2025-11-19_16h48.21.250,Final Solo Project Psy310,,2025.1.1,59.98883008,2025-11-19 16h48.29.689644 +0530
Face_file/Anger.jpg,Sound_file/Sad.wav,Anger,Sad,I,s,24,6,2,s,1,0.98557,None,2,6,24,7,74.1076972,,,,,,,,74.1053865,74.1076972,74.5838313,74.5838313,74.58385397,74.6170924,,,75.5839282,s,1,0.98557,None,P1,1,2025-11-19_16h48.21.250,Final Solo Project Psy310,,2025.1.1,59.98883008,2025-11-19 16h48.29.689644 +0530
Face_file/Sad.jpg,Sound_file/Happy.wav,Sad,Happy,I,h,25,7,2,h,1,1.1444601,None,2,7,25,6,75.6387375,,,,,,,,75.6353159,75.6387375,76.1169304,76.1169304,76.11698957,76.1504512,,,77.2678085,h,1,1.1444601,None,P1,1,2025-11-19_16h48.21.250,Final Solo Project Psy310,,2025.1.1,59.98883008,2025-11-19 16h48.29.689644 +0530
Face_file/Happy.jpg,Sound_file/Anger.wav,Happy,Anger,I,a,26,8,2,a,1,1.3377821,None,2,8,26,3,77.5541621,,,,,,,,77.5450599,77.5541621,77.8010051,77.8010051,77.80025397,78.0673857,,,79.1512471,a,1,1.3377821,None,P1,1,2025-11-19_16h48.21.250,Final Solo Project Psy310,,2025.1.1,59.98883008,2025-11-19 16h48.29.689644 +0530
Face_file/Happy.jpg,Sound_file/Sad.wav,Happy,Sad,I,s,29,2,3,s,1,1.9657911,None,3,2,29,8,83.8603657,,,,,,,,83.8512018,83.8603657,84.200612,84.200612,84.19964877,84.3674189,,,86.1676667,s,1,1.9657911,None,P1,1,2025-11-19_16h48.21.250,Final Solo Project Psy310,,2025.1.1,59.98883008,2025-11-19 16h48.29.689644 +0530
Face_file/Sad.jpg,Sound_file/Happy.wav,Sad,Happy,I,h,30,3,3,h,1,1.7241246,None,3,3,30,6,86.2440687,,,,,,,,86.2302257,86.2440687,86.6996646,86.6996646,86.69962727,86.7500423,,,88.433458,h,1,1.7241246,None,P1,1,2025-11-19_16h48.21.250,Final Solo Project Psy310,,2025.1.1,59.98883008,2025-11-19 16h48.29.689644 +0530
Face_file/Anger.jpg,Sound_file/Sad.wav,Anger,Sad,I,s,31,4,3,s,1,1.8455576,None,3,4,31,7,88.5037745,,,,,,,,88.5008327,88.5037745,88.9662436,88.9662436,88.96633897,89.0159682,,,90.8167885,s,1,1.8455576,None,P1,1,2025-11-19_16h48.21.250,Final Solo Project Psy310,,2025.1.1,59.98883008,2025-11-19 16h48.29.689644 +0530
Face_file/Happy.jpg,Sound_file/Anger.wav,Happy,Anger,I,a,32,5,3,a,1,1.4788896,None,3,5,32,3,91.1187605,,,,,,,,91.1089997,91.1187605,91.3498067,91.3498067,91.34893407,91.6332702,,,92.8338423,a,1,1.4788896,None,P1,1,2025-11-19_16h48.21.250,Final Solo Project Psy310,,2025.1.1,59.98883008,2025-11-19 16h48.29.689644 +0530
Face_file/Anger.jpg,Sound_file/Happy.wav,Anger,Happy,I,h,34,7,3,h,1,1.5493252,None,3,7,34,5,94.5918567,,,,,,,,94.589285,94.5918567,95.0492495,95.0492495,95.04911657,95.0994206,,,96.6004795,h,1,1.5493252,None,P1,1,2025-11-19_16h48.21.250,Final Solo Project Psy310,,2025.1.1,59.98883008,2025-11-19 16h48.29.689644 +0530
Face_file/Sad.jpg,Sound_file/Anger.wav,Sad,Anger,I,a,35,8,3,a,1,1.2239194,None,3,8,35,4,96.7671733,,,,,,,,96.7640649,96.7671733,97.1156867,97.1156867,97.11562587,97.2824808,,,98.3496485,a,1,1.2239194,None,P1,1,2025-11-19_16h48.21.250,Final Solo Project Psy310,,2025.1.1,59.98883008,2025-11-19 16h48.29.689644 +0530
Face_file/Sad.jpg,Sound_file/Happy.wav,Sad,Happy,I,h,36,0,4,h,1,1.4114404,None,4,0,36,6,98.406947,,,,,,,,98.4037873,98.406947,98.8660007,98.8660007,98.86538407,98.9157048,,,100.2833063,h,1,1.4114404,None,P1,1,2025-11-19_16h48.21.250,Final Solo Project Psy310,,2025.1.1,59.98883008,2025-11-19 16h48.29.689644 +0530
Face_file/Anger.jpg,Sound_file/Sad.wav,Anger,Sad,I,s,37,1,4,s,1,2.566626,None,4,1,37,7,100.3331921,,,,,,,,100.3300221,100.3331921,100.7990111,100.7990111,100.7984636,100.8322412,102.7983737,102.7983737,103.3824654,s,1,2.566626,None,P1,1,2025-11-19_16h48.21.250,Final Solo Project Psy310,,2025.1.1,59.98883008,2025-11-19 16h48.29.689644 +0530
Face_file/Sad.jpg,Sound_file/Anger.wav,Sad,Anger,I,a,39,3,4,a,1,1.0177838,None,4,3,39,4,105.2887388,,,,,,,,105.2854637,105.2887388,105.6485499,105.6485499,105.6484924,105.7985057,,,106.6823921,a,1,1.0177838,None,P1,1,2025-11-19_16h48.21.250,Final Solo Project Psy310,,2025.1.1,59.98883008,2025-11-19 16h48.29.689644 +0530
Face_file/Happy.jpg,Sound_file/Sad.wav,Happy,Sad,I,s,40,4,4,s,1,1.2268918,None,4,4,40,8,106.8694974,,,,,,,,106.8596398,106.8694974,107.1991808,107.1991808,107.1981408,107.3821496,,,108.4329917,s,1,1.2268918,None,P1,1,2025-11-19_16h48.21.250,Final Solo Project Psy310,,2025.1.1,59.98883008,2025-11-19 16h48.29.689644 +0530
Face_file/Anger.jpg,Sound_file/Happy.wav,Anger,Happy,I,h,41,5,4,h,1,1.1945228,None,4,5,41,5,108.5264979,,,,,,,,108.5131765,108.5264979,108.9484875,108.9484875,108.9483032,109.0315016,,,110.1489689,h,1,1.1945228,None,P1,1,2025-11-19_16h48.21.250,Final Solo Project Psy310,,2025.1.1,59.98883008,2025-11-19 16h48.29.689644 +0530
Face_file/Happy.jpg,Sound_file/Anger.wav,Happy,Anger,I,a,44,8,4,a,1,1.304776,None,4,8,44,3,114.2548388,,,,,,,,114.2457526,114.2548388,114.4650858,114.4650858,114.4642151,114.7650815,,,115.7822456,a,1,1.304776,None,P1,1,2025-11-19_16h48.21.250,Final Solo Project Psy310,,2025.1.1,59.98883008,2025-11-19 16h48.29.689644 +0530
Face_file/Happy.jpg,Sound_file/Sad.wav,Happy,Sad,I,s,45,0,5,s,1,1.9125921,None,5,0,45,8,115.9931121,,,,,,,,115.9845556,115.9931121,116.3150398,116.3150398,116.3142758,116.4985066,,,118.2324723,s,1,1.9125921,None,P1,1,2025-11-19_16h48.21.250,Final Solo Project Psy310,,2025.1.1,59.98883008,2025-11-19 16h48.29.689644 +0530
Face_file/Anger.jpg,Sound_file/Sad.wav,Anger,Sad,I,s,49,4,5,s,1,0.9857319,None,5,4,49,7,126.6780955,,,,,,,,126.6758212,126.6780955,127.1472271,127.1472271,127.1471245,127.1806658,,,128.1476756,s,1,0.9857319,None,P1,1,2025-11-19_16h48.21.250,Final Solo Project Psy310,,2025.1.1,59.98883008,2025-11-19 16h48.29.689644 +0530
Face_file/Anger.jpg,Sound_file/Happy.wav,Anger,Happy,I,h,50,5,5,h,1,0.9316911,None,5,5,50,5,128.2039648,,,,,,,,128.2012002,128.2039648,128.6639726,128.6639726,128.663707,128.7138661,,,129.5976209,h,1,0.9316911,None,P1,1,2025-11-19_16h48.21.250,Final Solo Project Psy310,,2025.1.1,59.98883008,2025-11-19 16h48.29.689644 +0530
Face_file/Happy.jpg,Sound_file/Anger.wav,Happy,Anger,I,a,51,6,5,a,1,1.2025657,None,5,6,51,3,129.8990111,,,,,,,,129.8897191,129.8990111,130.114263,130.114263,130.1136275,130.4143663,,,131.3317509,a,1,1.2025657,None,P1,1,2025-11-19_16h48.21.250,Final Solo Project Psy310,,2025.1.1,59.98883008,2025-11-19 16h48.29.689644 +0530
Face_file/Sad.jpg,Sound_file/Anger.wav,Sad,Anger,I,a,52,7,5,a,1,1.0416846,None,5,7,52,4,131.5087411,,,,,,,,131.4966298,131.5087411,131.8470887,131.8470887,131.8468374,132.0134422,,,132.8977248,a,1,1.0416846,None,P1,1,2025-11-19_16h48.21.250,Final Solo Project Psy310,,2025.1.1,59.98883008,2025-11-19 16h48.29.689644 +0530
Face_file/Sad.jpg,Sound_file/Happy.wav,Sad,Happy,I,h,53,8,5,h,1,0.9656171,None,5,8,53,6,132.9617766,,,,,,,,132.959516,132.9617766,133.4300805,133.4300805,133.4302078,133.4636395,,,134.3971272,h,1,0.9656171,None,P1,1,2025-11-19_16h48.21.250,Final Solo Project Psy310,,2025.1.1,59.98883008,2025-11-19 16h48.29.689644 +0530
Face_file/Sad.jpg,Sound_file/Happy.wav,Sad,Happy,I,h,55,1,6,h,1,0.9369359,None,6,1,55,6,136.2398059,,,,,,,,136.2373948,136.2398059,136.7130648,136.7130648,136.7130047,136.7463348,,,137.6638051,h,1,0.9369359,None,P1,1,2025-11-19_16h48.21.250,Final Solo Project Psy310,,2025.1.1,59.98883008,2025-11-19 16h48.29.689644 +0530
Face_file/Sad.jpg,Sound_file/Anger.wav,Sad,Anger,I,a,56,2,6,a,1,1.4603313,None,6,2,56,4,137.8484127,,,,,,,,137.8458813,137.8484127,138.1964208,138.1964208,138.1965347,138.3635519,,,139.6637008,a,1,1.4603313,None,P1,1,2025-11-19_16h48.21.250,Final Solo Project Psy310,,2025.1.1,59.98883008,2025-11-19 16h48.29.689644 +0530
Face_file/Anger.jpg,Sound_file/Happy.wav,Anger,Happy,I,h,57,3,6,h,1,1.2779016,None,6,3,57,5,139.7429002,,,,,,,,139.7398868,139.7429002,140.1961051,140.1961051,140.1961706,140.2462536,,,141.4807266,h,1,1.2779016,None,P1,1,2025-11-19_16h48.21.250,Final Solo Project Psy310,,2025.1.1,59.98883008,2025-11-19 16h48.29.689644 +0530
Face_file/Happy.jpg,Sound_file/Anger.wav,Happy,Anger,I,a,58,4,6,a,1,1.3874346,None,6,4,58,3,141.8057498,,,,,,,,141.795877,141.8057498,142.0136748,142.0136748,142.0128017,142.3135499,,,143.4139752,a,1,1.3874346,None,P1,1,2025-11-19_16h48.21.250,Final Solo Project Psy310,,2025.1.1,59.98883008,2025-11-19 16h48.29.689644 +0530
Face_file/Anger.jpg,Sound_file/Sad.wav,Anger,Sad,I,s,60,6,6,s,1,2.6692317,None,6,6,60,7,145.2548991,,,,,,,,145.2405317,145.2548991,145.7128412,145.7128412,145.7127449,145.7626533,147.713588,147.713588,148.3965268,s,1,2.6692317,None,P1,1,2025-11-19_16h48.21.250,Final Solo Project Psy310,,2025.1.1,59.98883008,2025-11-19 16h48.29.689644 +0530
Face_file/Happy.jpg,Sound_file/Sad.wav,Happy,Sad,I,s,62,8,6,s,1,1.272976,None,6,8,62,8,150.2507378,,,,,,,,150.2414017,150.2507378,150.6130275,150.6130275,150.6125075,150.7627809,,,151.8969001,s,1,1.272976,None,P1,1,2025-11-19_16h48.21.250,Final Solo Project Psy310,,2025.1.1,59.98883008,2025-11-19 16h48.29.689644 +0530
Face_file/Sad.jpg,Sound_file/Happy.wav,Sad,Happy,I,h,63,0,7,a,0,1.0404069,None,7,0,63,6,151.9907305,,,,,,,,151.978486,151.9907305,152.412393,152.412393,152.4123434,152.4956158,,,153.4627641,a,0,1.0404069,None,P1,1,2025-11-19_16h48.21.250,Final Solo Project Psy310,,2025.1.1,59.98883008,2025-11-19 16h48.29.689644 +0530
Face_file/Happy.jpg,Sound_file/Sad.wav,Happy,Sad,I,s,64,1,7,s,1,1.8345555,None,7,1,64,8,153.6418728,,,,,,,,153.6331982,153.6418728,153.9961245,153.9961245,153.9955545,154.1461373,,,155.8464024,s,1,1.8345555,None,P1,1,2025-11-19_16h48.21.250,Final Solo Project Psy310,,2025.1.1,59.98883008,2025-11-19 16h48.29.689644 +0530
Face_file/Happy.jpg,Sound_file/Anger.wav,Happy,Anger,I,a,66,3,7,a,1,1.2931619,None,7,3,66,3,158.1483993,,,,,,,,158.1389844,158.1483993,158.3625559,158.3625559,158.3618161,158.6626427,,,159.6630424,a,1,1.2931619,None,P1,1,2025-11-19_16h48.21.250,Final Solo Project Psy310,,2025.1.1,59.98883008,2025-11-19 16h48.29.689644 +0530
Face_file/Anger.jpg,Sound_file/Happy.wav,Anger,Happy,I,h,68,5,7,h,1,1.1791058,None,7,5,68,5,161.5968513,,,,,,,,161.5841359,161.5968513,162.0450905,162.0450905,162.0446754,162.1114525,,,163.2287311,h,1,1.1791058,None,P1,1,2025-11-19_16h48.21.250,Final Solo Project Psy310,,2025.1.1,59.98883008,2025-11-19 16h48.29.689644 +0530
Face_file/Anger.jpg,Sound_file/Sad.wav,Anger,Sad,I,s,69,6,7,s,1,1.1100763,None,7,6,69,7,163.2907677,,,,,,,,163.2879358,163.2907677,163.7615893,163.7615893,163.7612303,163.7948006,,,164.8789638,s,1,1.1100763,None,P1,1,2025-11-19_16h48.21.250,Final Solo Project Psy310,,2025.1.1,59.98883008,2025-11-19 16h48.29.689644 +0530
Face_file/Sad.jpg,Sound_file/Anger.wav,Sad,Anger,I,a,70,7,7,a,1,1.0536025,None,7,7,70,4,165.0527399,,,,,,,,165.0494463,165.0527399,165.3948476,165.3948476,165.3944012,165.5613808,,,166.4623835,a,1,1.0536025,None,P1,1,2025-11-19_16h48.21.250,Final Solo Project Psy310,,2025.1.1,59.98883008,2025-11-19 16h48.29.689644 +0530
Face_file/Anger.jpg,Sound_file/Happy.wav,Anger,Happy,I,h,72,0,8,h,1,1.514001,None,8,0,72,5,168.0159575,,,,,,,,168.0133181,168.0159575,168.4780488,168.4780488,168.4779232,168.5276649,,,169.9950765,h,1,1.514001,None,P1,1,2025-11-19_16h48.21.250,Final Solo Project Psy310,,2025.1.1,59.98883008,2025-11-19 16h48.29.689644 +0530
Face_file/Sad.jpg,Sound_file/Happy.wav,Sad,Happy,I,h,73,1,8,h,1,0.9725688,None,8,1,73,6,170.0461759,,,,,,,,170.043017,170.0461759,170.5114638,170.5114638,170.5112027,170.5611519,,,171.4955812,h,1,0.9725688,None,P1,1,2025-11-19_16h48.21.250,Final Solo Project Psy310,,2025.1.1,59.98883008,2025-11-19 16h48.29.689644 +0530
Face_file/Happy.jpg,Sound_file/Anger.wav,Happy,Anger,I,a,74,2,8,a,1,1.1796284,None,8,2,74,3,171.7883494,,,,,,,,171.7789771,171.7883494,172.0118877,172.0118877,172.0109694,172.2949041,,,173.1957666,a,1,1.1796284,None,P1,1,2025-11-19_16h48.21.250,Final Solo Project Psy310,,2025.1.1,59.98883008,2025-11-19 16h48.29.689644 +0530
Face_file/Happy.jpg,Sound_file/Sad.wav,Happy,Sad,I,s,76,4,8,h,0,0.7715152,None,8,4,76,8,175.0252886,,,,,,,,175.0159179,175.0252886,175.3780929,175.3780929,175.3774547,175.5280683,,,176.1624756,h,0,0.7715152,None,P1,1,2025-11-19_16h48.21.250,Final Solo Project Psy310,,2025.1.1,59.98883008,2025-11-19 16h48.29.689644 +0530
Face_file/Sad.jpg,Sound_file/Anger.wav,Sad,Anger,I,a,78,6,8,a,1,1.374234,None,8,6,78,4,177.7005243,,,,,,,,177.6883822,177.7005243,178.0441904,178.0441904,178.0440996,178.2106216,,,179.4278328,a,1,1.374234,None,P1,1,2025-11-19_16h48.21.250,Final Solo Project Psy310,,2025.1.1,59.98883008,2025-11-19 16h48.29.689644 +0530
Face_file/Anger.jpg,Sound_file/Sad.wav,Anger,Sad,I,s,80,8,8,s,1,1.1009106,None,8,8,80,7,182.2798894,,,,,,,,182.2766937,182.2798894,182.7437103,182.7437103,182.7436461,182.7937975,,,183.8610995,s,1,1.1009106,None,P1,1,2025-11-19_16h48.21.250,Final Solo Project Psy310,,2025.1.1,59.98883008,2025-11-19 16h48.29.689644 +0530
Face_file/Happy.jpg,Sound_file/Sad.wav,Happy,Sad,I,s,81,0,9,s,1,1.1262431,None,9,0,81,8,184.0372374,,,,,,,,184.0277199,184.0372374,184.3942234,184.3942234,184.3935384,184.5441997,,,185.5286163,s,1,1.1262431,None,P1,1,2025-11-19_16h48.21.250,Final Solo Project Psy310,,2025.1.1,59.98883008,2025-11-19 16h48.29.689644 +0530
Face_file/Sad.jpg,Sound_file/Happy.wav,Sad,Happy,I,h,83,2,9,h,1,0.9694578,None,9,2,83,6,187.1061653,,,,,,,,187.094509,187.1061653,187.5600458,187.5600458,187.5599094,187.6102405,,,188.5440554,h,1,0.9694578,None,P1,1,2025-11-19_16h48.21.250,Final Solo Project Psy310,,2025.1.1,59.98883008,2025-11-19 16h48.29.689644 +0530
Face_file/Happy.jpg,Sound_file/Anger.wav,Happy,Anger,I,a,84,3,9,a,1,1.8412571,None,9,3,84,3,188.8399234,,,,,,,,188.8311508,188.8399234,189.0606391,189.0606391,189.0599758,189.3439787,,,190.9112706,a,1,1.8412571,None,P1,1,2025-11-19_16h48.21.250,Final Solo Project Psy310,,2025.1.1,59.98883008,2025-11-19 16h48.29.689644 +0530
Face_file/Anger.jpg,Sound_file/Happy.wav,Anger,Happy,I,h,86,5,9,h,1,1.0095765,None,9,5,86,5,192.7096199,,,,,,,,192.7066306,192.7096199,193.1764014,193.1764014,193.1764841,193.2096629,,,194.1937351,h,1,1.0095765,None,P1,1,2025-11-19_16h48.21.250,Final Solo Project Psy310,,2025.1.1,59.98883008,2025-11-19 16h48.29.689644 +0530
Face_file/Sad.jpg,Sound_file/Anger.wav,Sad,Anger,I,a,88,7,9,a,1,1.2006741,None,9,7,88,4,195.9940191,,,,,,,,195.9909525,195.9940191,196.3594196,196.3594196,196.3592323,196.5098891,,,197.576926,a,1,1.2006741,None,P1,1,2025-11-19_16h48.21.250,Final Solo Project Psy310,,2025.1.1,59.98883008,2025-11-19 16h48.29.689644 +0530
Face_file/Anger.jpg,Sound_file/Sad.wav,Anger,Sad,I,s,89,8,9,s,1,1.664695,None,9,8,89,7,197.6320823,,,,,,,,197.6296269,197.6320823,198.1094289,198.1094289,198.1091035,198.1426797,,,199.776634,s,1,1.664695,None,P1,1,2025-11-19_16h48.21.250,Final Solo Project Psy310,,2025.1.1,59.98883008,2025-11-19 16h48.29.689644 +0530
Face_file/Anger.jpg,Sound_file/Happy.wav,Anger,Happy,I,h,90,0,10,h,1,1.1970319,None,10,0,90,5,199.8355362,,,,,,,,199.833153,199.8355362,200.2926211,200.2926211,200.2927847,200.3427097,,,201.4933697,h,1,1.1970319,None,P1,1,2025-11-19_16h48.21.250,Final Solo Project Psy310,,2025.1.1,59.98883008,2025-11-19 16h48.29.689644 +0530
Face_file/Sad.jpg,Sound_file/Anger.wav,Sad,Anger,I,a,91,1,10,a,1,2.1397843,None,10,1,91,4,201.6570755,,,,,,,,201.6535432,201.6570755,202.0091061,202.0091061,202.0092385,202.159117,204.0181317,204.0181317,204.1593577,a,1,2.1397843,None,P1,1,2025-11-19_16h48.21.250,Final Solo Project Psy310,,2025.1.1,59.98883008,2025-11-19 16h48.29.689644 +0530
Face_file/Happy.jpg,Sound_file/Anger.wav,Happy,Anger,I,a,92,2,10,a,1,1.0262507,None,10,2,92,3,204.4654932,,,,,,,,204.4556434,204.4654932,204.6596155,204.6596155,204.6589542,204.9765156,,,205.6937197,a,1,1.0262507,None,P1,1,2025-11-19_16h48.21.250,Final Solo Project Psy310,,2025.1.1,59.98883008,2025-11-19 16h48.29.689644 +0530
Face_file/Happy.jpg,Sound_file/Sad.wav,Happy,Sad,I,s,93,3,10,s,1,1.1584707,None,10,3,93,8,205.8702859,,,,,,,,205.861562,205.8702859,206.2093116,206.2093116,206.2087998,206.3758152,,,207.376618,s,1,1.1584707,None,P1,1,2025-11-19_16h48.21.250,Final Solo Project Psy310,,2025.1.1,59.98883008,2025-11-19 16h48.29.689644 +0530
Face_file/Sad.jpg,Sound_file/Happy.wav,Sad,Happy,I,h,97,7,10,h,1,1.0525801,None,10,7,97,6,214.4771644,,,,,,,,214.4648729,214.4771644,214.9251418,214.9251418,214.9250525,214.9918609,,,215.9925206,h,1,1.0525801,None,P1,1,2025-11-19_16h48.21.250,Final Solo Project Psy310,,2025.1.1,59.98883008,2025-11-19 16h48.29.689644 +0530
Face_file/Anger.jpg,Sound_file/Sad.wav,Anger,Sad,I,s,98,8,10,s,1,2.0165863,None,10,8,98,7,216.0570746,,,,,,,,216.0541648,216.0570746,216.5251584,216.5251584,216.5248109,216.5582638,218.5251287,218.5251287,218.5583677,s,1,2.0165863,None,P1,1,2025-11-19_16h48.21.250,Final Solo Project Psy310,,2025.1.1,59.98883008,2025-11-19 16h48.29.689644 +0530
Face_file/Anger.jpg,Sound_file/Sad.wav,Anger,Sad,I,s,99,0,11,s,1,0.7545844,None,11,0,99,7,218.5943208,,,,,,,,218.5919838,218.5943208,219.0582309,219.0582309,219.0581182,219.1083023,,,219.8257545,s,1,0.7545844,None,P1,1,2025-11-19_16h48.21.250,Final Solo Project Psy310,,2025.1.1,59.98883008,2025-11-19 16h48.29.689644 +0530
Face_file/Sad.jpg,Sound_file/Anger.wav,Sad,Anger,I,a,101,2,11,a,1,1.0919963,None,11,2,101,4,221.3592376,,,,,,,,221.356952,221.3592376,221.7245074,221.7245074,221.7245829,221.8744637,,,222.8254086,a,1,1.0919963,None,P1,1,2025-11-19_16h48.21.250,Final Solo Project Psy310,,2025.1.1,59.98883008,2025-11-19 16h48.29.689644 +0530
Face_file/Sad.jpg,Sound_file/Happy.wav,Sad,Happy,I,h,103,4,11,h,1,0.862495,None,11,4,103,6,224.5214967,,,,,,,,224.5091113,224.5214967,224.9578646,224.9578646,224.9574568,225.0245442,,,225.8252613,h,1,0.862495,None,P1,1,2025-11-19_16h48.21.250,Final Solo Project Psy310,,2025.1.1,59.98883008,2025-11-19 16h48.29.689644 +0530
Face_file/Happy.jpg,Sound_file/Anger.wav,Happy,Anger,I,a,104,5,11,a,1,1.0487496,None,11,5,104,3,226.1276549,,,,,,,,226.1184391,226.1276549,226.3583393,226.3583393,226.3576452,226.6417385,,,227.4088885,a,1,1.0487496,None,P1,1,2025-11-19_16h48.21.250,Final Solo Project Psy310,,2025.1.1,59.98883008,2025-11-19 16h48.29.689644 +0530
Face_file/Happy.jpg,Sound_file/Sad.wav,Happy,Sad,I,s,105,6,11,s,1,1.2933082,None,11,6,105,8,227.5848046,,,,,,,,227.576946,227.5848046,227.9249931,227.9249931,227.924198,228.0913311,,,229.2254833,s,1,1.2933082,None,P1,1,2025-11-19_16h48.21.250,Final Solo Project Psy310,,2025.1.1,59.98883008,2025-11-19 16h48.29.689644 +0530
Face_file/Anger.jpg,Sound_file/Happy.wav,Anger,Happy,I,h,107,8,11,h,1,1.0179717,None,11,8,107,5,231.3866145,,,,,,,,231.3837432,231.3866145,231.8406365,231.8406365,231.8408217,231.8909145,,,232.8746446,h,1,1.0179717,None,P1,1,2025-11-19_16h48.21.250,Final Solo Project Psy310,,2025.1.1,59.98883008,2025-11-19 16h48.29.689644 +0530
,,,,,,,,,,,,,,,,,,,0.0016721,0.0155212,22.6660201,space,22.618423,None,,,,,,,,,,,,,,P1,1,2025-11-19_16h48.21.250,Final Solo Project Psy310,,2025.1.1,59.98883008,2025-11-19 16h48.29.689644 +0530
,,,,,,,,,,,1.404299344,,,,,,,,,,,,,,,,,,,,,,,,,,,,,,,,,,
,,,,,,,,,,,1.421529268,,,,,,,,,,,,,,,,,,,,,,,,,,,,,,,,,,
