Face_file,Sound_file,Face_emotion,Sound_emotion,Congruency,corr_resp,thisN,thisTrialN,thisRepN,key_resp.keys,key_resp.corr,key_resp.rt,key_resp.duration,trials.thisRepN,trials.thisTrialN,trials.thisN,trials.thisIndex,thisRow.t,notes,Instruction.started,key_instruct.started,Instruction.stopped,key_instruct.keys,key_instruct.rt,key_instruct.duration,trial.started,Fixation.started,Image.started,key_resp.started,Sound.started,Fixation.stopped,Image.stopped,Sound.stopped,trial.stopped,trials.key_resp.keys,trials.key_resp.corr,trials.key_resp.rt,trials.key_resp.duration,participant,session,date,expName,expVersion,psychopyVersion,frameRate,expStart
Face_file/Sad.jpg,Sound_file/Sad.wav,Sad,Sad,C,s,2,2,0,s,1,2.0847943,None,0,2,2,2,19.2632573,,,,,,,,19.2606747,19.2632573,19.6443403,19.6443403,19.64424527,19.7776969,21.6479312,21.6479312,21.744413,s,1,2.0847943,None,P2,1,2025-11-20_09h04.09.810,Final Solo Project Psy310,,2025.1.1,60.39300142,2025-11-20 09h04.38.088857 +0530
Face_file/Happy.jpg,Sound_file/Happy.wav,Happy,Happy,C,h,4,4,0,h,1,2.1697828,None,0,4,4,1,25.4006346,,,,,,,,25.3906453,25.4006346,25.7448019,25.7448019,25.74387227,25.9113462,27.7476701,27.7476701,27.9275555,h,1,2.1697828,None,P2,1,2025-11-20_09h04.09.810,Final Solo Project Psy310,,2025.1.1,60.39300142,2025-11-20 09h04.38.088857 +0530
Face_file/Anger.jpg,Sound_file/Anger.wav,Anger,Anger,C,a,7,7,0,a,1,1.9741061,None,0,7,7,0,33.4484694,,,,,,,,33.4459661,33.4484694,33.7772196,33.7772196,33.77699067,33.9602044,35.8036892,35.8036892,35.7722378,a,1,1.9741061,None,P2,1,2025-11-20_09h04.09.810,Final Solo Project Psy310,,2025.1.1,60.39300142,2025-11-20 09h04.38.088857 +0530
Face_file/Sad.jpg,Sound_file/Sad.wav,Sad,Sad,C,s,14,5,1,s,1,2.9996011,None,1,5,14,2,54.4788293,,,,,,,,54.4752113,54.4788293,54.9422971,54.9422971,54.94249517,54.9925114,56.9420836,56.9420836,57.9426047,s,1,2.9996011,None,P2,1,2025-11-20_09h04.09.810,Final Solo Project Psy310,,2025.1.1,60.39300142,2025-11-20 09h04.38.088857 +0530
Face_file/Happy.jpg,Sound_file/Happy.wav,Happy,Happy,C,h,15,6,1,h,1,2.3112797,None,1,6,15,1,58.1480754,,,,,,,,58.1377805,58.1480754,58.4433027,58.4433027,58.44202417,58.6598145,60.446395,60.446395,60.7587199,h,1,2.3112797,None,P2,1,2025-11-20_09h04.09.810,Final Solo Project Psy310,,2025.1.1,60.39300142,2025-11-20 09h04.38.088857 +0530
Face_file/Anger.jpg,Sound_file/Anger.wav,Anger,Anger,C,a,17,8,1,a,1,2.2224787,None,1,8,17,0,63.8018123,,,,,,,,63.7987064,63.8018123,64.1417299,64.1417299,64.14177927,64.3082315,66.1461335,66.1461335,66.3752428,a,1,2.2224787,None,P2,1,2025-11-20_09h04.09.810,Final Solo Project Psy310,,2025.1.1,60.39300142,2025-11-20 09h04.38.088857 +0530
Face_file/Anger.jpg,Sound_file/Anger.wav,Anger,Anger,C,a,18,0,2,a,1,2.2868895,None,2,0,18,0,66.5359528,,,,,,,,66.5337624,66.5359528,66.875101,66.875101,66.87464557,67.0416377,68.8745848,68.8745848,69.1752202,a,1,2.2868895,None,P2,1,2025-11-20_09h04.09.810,Final Solo Project Psy310,,2025.1.1,60.39300142,2025-11-20 09h04.38.088857 +0530
Face_file/Happy.jpg,Sound_file/Happy.wav,Happy,Happy,C,h,20,2,2,h,1,1.9660542,None,2,2,20,1,72.6202272,,,,,,,,72.6119896,72.6202272,72.9420663,72.9420663,72.94091887,73.1249266,,,74.9091256,h,1,1.9660542,None,P2,1,2025-11-20_09h04.09.810,Final Solo Project Psy310,,2025.1.1,60.39300142,2025-11-20 09h04.38.088857 +0530
Face_file/Sad.jpg,Sound_file/Sad.wav,Sad,Sad,C,s,23,5,2,s,1,1.7205661,None,2,5,23,2,81.3594155,,,,,,,,81.3562541,81.3594155,81.8406147,81.8406147,81.84036687,81.8740668,,,83.5744621,s,1,1.7205661,None,P2,1,2025-11-20_09h04.09.810,Final Solo Project Psy310,,2025.1.1,60.39300142,2025-11-20 09h04.38.088857 +0530
Face_file/Sad.jpg,Sound_file/Sad.wav,Sad,Sad,C,s,30,3,3,s,1,1.6549131,None,3,3,30,2,102.9738003,,,,,,,,102.9616336,102.9738003,103.4226562,103.4226562,103.4225316,103.4892215,,,105.0896277,s,1,1.6549131,None,P2,1,2025-11-20_09h04.09.810,Final Solo Project Psy310,,2025.1.1,60.39300142,2025-11-20 09h04.38.088857 +0530
Face_file/Anger.jpg,Sound_file/Anger.wav,Anger,Anger,C,a,33,6,3,a,1,2.5293842,None,3,6,33,0,111.2392303,,,,,,,,111.2360586,111.2392303,111.5718558,111.5718558,111.5721739,111.7391944,113.5719782,113.5719782,114.1055343,a,1,2.5293842,None,P2,1,2025-11-20_09h04.09.810,Final Solo Project Psy310,,2025.1.1,60.39300142,2025-11-20 09h04.38.088857 +0530
Face_file/Happy.jpg,Sound_file/Happy.wav,Happy,Happy,C,h,35,8,3,h,1,2.5680922,None,3,8,35,1,117.2727089,,,,,,,,117.2641909,117.2727089,117.589288,117.589288,117.5880997,117.7723321,119.5879759,119.5879759,120.1721549,h,1,2.5680922,None,P2,1,2025-11-20_09h04.09.810,Final Solo Project Psy310,,2025.1.1,60.39300142,2025-11-20 09h04.38.088857 +0530
Face_file/Sad.jpg,Sound_file/Sad.wav,Sad,Sad,C,s,36,0,4,s,1,2.4540728,None,4,0,36,2,120.224385,,,,,,,,120.2123851,120.224385,120.6714765,120.6714765,120.6713114,120.7381441,122.6763023,122.6763023,123.1384503,s,1,2.4540728,None,P2,1,2025-11-20_09h04.09.810,Final Solo Project Psy310,,2025.1.1,60.39300142,2025-11-20 09h04.38.088857 +0530
Face_file/Anger.jpg,Sound_file/Anger.wav,Anger,Anger,C,a,38,2,4,a,1,2.4183016,None,4,2,38,0,126.4459443,,,,,,,,126.4326904,126.4459443,126.7380151,126.7380151,126.7379443,126.9547707,128.7381976,128.7381976,129.1717299,a,1,2.4183016,None,P2,1,2025-11-20_09h04.09.810,Final Solo Project Psy310,,2025.1.1,60.39300142,2025-11-20 09h04.38.088857 +0530
Face_file/Happy.jpg,Sound_file/Happy.wav,Happy,Happy,C,h,41,5,4,h,1,2.49291,None,4,5,41,1,136.8952287,,,,,,,,136.8856496,136.8952287,137.2043955,137.2043955,137.2036757,137.4046148,139.2048939,139.2048939,139.7040397,h,1,2.49291,None,P2,1,2025-11-20_09h04.09.810,Final Solo Project Psy310,,2025.1.1,60.39300142,2025-11-20 09h04.38.088857 +0530
Face_file/Sad.jpg,Sound_file/Sad.wav,Sad,Sad,C,s,46,1,5,s,1,2.5993952,None,5,1,46,2,152.5390003,,,,,,,,152.5269218,152.5390003,152.9696028,152.9696028,152.9693995,153.0527907,154.9735795,154.9735795,155.5696017,s,1,2.5993952,None,P2,1,2025-11-20_09h04.09.810,Final Solo Project Psy310,,2025.1.1,60.39300142,2025-11-20 09h04.38.088857 +0530
Face_file/Happy.jpg,Sound_file/Happy.wav,Happy,Happy,C,h,51,6,5,h,1,2.6657894,None,5,6,51,1,167.3641604,,,,,,,,167.3549677,167.3641604,167.6860015,167.6860015,167.6853631,167.8690779,169.6880402,169.6880402,170.3526205,h,1,2.6657894,None,P2,1,2025-11-20_09h04.09.810,Final Solo Project Psy310,,2025.1.1,60.39300142,2025-11-20 09h04.38.088857 +0530
Face_file/Anger.jpg,Sound_file/Anger.wav,Anger,Anger,C,a,52,7,5,a,1,2.4110246,None,5,7,52,0,170.5205638,,,,,,,,170.5095384,170.5205638,170.8519253,170.8519253,170.851835,171.0354217,172.8560716,172.8560716,173.2690095,a,1,2.4110246,None,P2,1,2025-11-20_09h04.09.810,Final Solo Project Psy310,,2025.1.1,60.39300142,2025-11-20 09h04.38.088857 +0530
Face_file/Happy.jpg,Sound_file/Happy.wav,Happy,Happy,C,h,54,0,6,h,1,2.4914878,None,6,0,54,1,187.3146767,,,,,,,,187.30267,187.3146767,187.6346783,187.6346783,187.6338729,187.8180522,189.6348736,189.6348736,190.1342433,h,1,2.4914878,None,P2,1,2025-11-20_09h04.09.810,Final Solo Project Psy310,,2025.1.1,60.39300142,2025-11-20 09h04.38.088857 +0530
Face_file/Sad.jpg,Sound_file/Sad.wav,Sad,Sad,C,s,57,3,6,s,1,2.3916936,None,6,3,57,2,195.7571483,,,,,,,,195.7545658,195.7571483,196.23342,196.23342,196.2331145,196.2666183,198.2335232,198.2335232,198.6336831,s,1,2.3916936,None,P2,1,2025-11-20_09h04.09.810,Final Solo Project Psy310,,2025.1.1,60.39300142,2025-11-20 09h04.38.088857 +0530
Face_file/Anger.jpg,Sound_file/Anger.wav,Anger,Anger,C,a,61,7,6,a,1,2.558413,None,6,7,61,0,207.7882381,,,,,,,,207.7758531,207.7882381,208.1160605,208.1160605,208.1158524,208.2993155,210.1158237,210.1158237,210.6831747,a,1,2.558413,None,P2,1,2025-11-20_09h04.09.810,Final Solo Project Psy310,,2025.1.1,60.39300142,2025-11-20 09h04.38.088857 +0530
Face_file/Anger.jpg,Sound_file/Anger.wav,Anger,Anger,C,a,63,0,7,a,1,2.293623,None,7,0,63,0,213.7893752,,,,,,,,213.7866713,213.7893752,214.1324479,214.1324479,214.1322092,214.2989813,216.1357784,216.1357784,216.4325021,a,1,2.293623,None,P2,1,2025-11-20_09h04.09.810,Final Solo Project Psy310,,2025.1.1,60.39300142,2025-11-20 09h04.38.088857 +0530
Face_file/Happy.jpg,Sound_file/Happy.wav,Happy,Happy,C,h,69,6,7,s,0,1.7830925,None,7,6,69,1,230.9088645,,,,,,,,230.8994621,230.9088645,231.13194,231.13194,231.1313806,231.4154475,,,232.9158826,s,0,1.7830925,None,P2,1,2025-11-20_09h04.09.810,Final Solo Project Psy310,,2025.1.1,60.39300142,2025-11-20 09h04.38.088857 +0530
Face_file/Sad.jpg,Sound_file/Sad.wav,Sad,Sad,C,s,70,7,7,s,1,3.3475646,None,7,7,70,2,232.962727,,,,,,,,232.9491649,232.962727,233.4311641,233.4311641,233.4308451,233.4643926,235.4307927,235.4307927,236.7817215,s,1,3.3475646,None,P2,1,2025-11-20_09h04.09.810,Final Solo Project Psy310,,2025.1.1,60.39300142,2025-11-20 09h04.38.088857 +0530
Face_file/Happy.jpg,Sound_file/Happy.wav,Happy,Happy,C,h,75,3,8,h,1,2.4030913,None,8,3,75,1,255.1413274,,,,,,,,255.1321008,255.1413274,255.4808056,255.4808056,255.4801003,255.6473365,257.4796974,257.4796974,257.8969131,h,1,2.4030913,None,P2,1,2025-11-20_09h04.09.810,Final Solo Project Psy310,,2025.1.1,60.39300142,2025-11-20 09h04.38.088857 +0530
Face_file/Sad.jpg,Sound_file/Sad.wav,Sad,Sad,C,s,78,6,8,s,1,2.3316661,None,8,6,78,2,264.7565928,,,,,,,,264.7454523,264.7565928,265.2290649,265.2290649,265.2290568,265.2627306,267.2287729,267.2287729,267.5624957,s,1,2.3316661,None,P2,1,2025-11-20_09h04.09.810,Final Solo Project Psy310,,2025.1.1,60.39300142,2025-11-20 09h04.38.088857 +0530
Face_file/Anger.jpg,Sound_file/Anger.wav,Anger,Anger,C,a,80,8,8,a,1,2.2614747,None,8,8,80,0,271.1354002,,,,,,,,271.1326583,271.1354002,271.4624017,271.4624017,271.4620935,271.6457781,273.4618457,273.4618457,273.729422,a,1,2.2614747,None,P2,1,2025-11-20_09h04.09.810,Final Solo Project Psy310,,2025.1.1,60.39300142,2025-11-20 09h04.38.088857 +0530
Face_file/Happy.jpg,Sound_file/Happy.wav,Happy,Happy,C,h,82,1,9,h,1,2.8121169,None,9,1,82,1,276.9967319,,,,,,,,276.9883101,276.9967319,277.3293351,277.3293351,277.3286317,277.4959411,279.3284124,279.3284124,280.1453954,h,1,2.8121169,None,P2,1,2025-11-20_09h04.09.810,Final Solo Project Psy310,,2025.1.1,60.39300142,2025-11-20 09h04.38.088857 +0530
Face_file/Sad.jpg,Sound_file/Sad.wav,Sad,Sad,C,s,86,5,9,s,1,2.3108315,None,9,5,86,2,288.6971304,,,,,,,,288.6859482,288.6971304,289.1612471,289.1612471,289.1610134,289.211493,291.1662132,291.1662132,291.4783327,s,1,2.3108315,None,P2,1,2025-11-20_09h04.09.810,Final Solo Project Psy310,,2025.1.1,60.39300142,2025-11-20 09h04.38.088857 +0530
Face_file/Anger.jpg,Sound_file/Anger.wav,Anger,Anger,C,a,89,8,9,a,1,2.3013326,None,9,8,89,0,298.9874462,,,,,,,,298.9847183,298.9874462,299.3272146,299.3272146,299.3270023,299.493948,301.3269083,301.3269083,301.6442143,a,1,2.3013326,None,P2,1,2025-11-20_09h04.09.810,Final Solo Project Psy310,,2025.1.1,60.39300142,2025-11-20 09h04.38.088857 +0530
Face_file/Anger.jpg,Sound_file/Anger.wav,Anger,Anger,C,a,91,1,10,a,1,2.333989,None,10,1,91,0,304.5076779,,,,,,,,304.5053496,304.5076779,304.8767906,304.8767906,304.8767217,305.0103037,306.8765497,306.8765497,307.227014,a,1,2.333989,None,P2,1,2025-11-20_09h04.09.810,Final Solo Project Psy310,,2025.1.1,60.39300142,2025-11-20 09h04.38.088857 +0530
Face_file/Happy.jpg,Sound_file/Happy.wav,Happy,Happy,C,h,95,5,10,h,1,2.3060096,None,10,5,95,1,316.0798285,,,,,,,,316.0704208,316.0798285,316.4101218,316.4101218,316.4096097,316.5938129,318.4092599,318.4092599,318.7266656,h,1,2.3060096,None,P2,1,2025-11-20_09h04.09.810,Final Solo Project Psy310,,2025.1.1,60.39300142,2025-11-20 09h04.38.088857 +0530
Face_file/Sad.jpg,Sound_file/Sad.wav,Sad,Sad,C,s,98,8,10,s,1,2.399216,None,10,8,98,2,324.3608748,,,,,,,,324.3586498,324.3608748,324.8425923,324.8425923,324.8421361,324.8757369,326.842274,326.842274,327.2426,s,1,2.399216,None,P2,1,2025-11-20_09h04.09.810,Final Solo Project Psy310,,2025.1.1,60.39300142,2025-11-20 09h04.38.088857 +0530
Face_file/Anger.jpg,Sound_file/Anger.wav,Anger,Anger,C,a,100,1,11,a,1,2.5424826,None,11,1,100,0,331.0095739,,,,,,,,331.007199,331.0095739,331.3586051,331.3586051,331.3584942,331.5085948,333.3583072,333.3583072,333.9086511,a,1,2.5424826,None,P2,1,2025-11-20_09h04.09.810,Final Solo Project Psy310,,2025.1.1,60.39300142,2025-11-20 09h04.38.088857 +0530
Face_file/Happy.jpg,Sound_file/Happy.wav,Happy,Happy,C,h,104,5,11,h,1,2.4078158,None,11,5,104,1,343.0834359,,,,,,,,343.0742163,343.0834359,343.4086089,343.4086089,343.4077324,343.591733,345.4076406,345.4076406,345.824875,h,1,2.4078158,None,P2,1,2025-11-20_09h04.09.810,Final Solo Project Psy310,,2025.1.1,60.39300142,2025-11-20 09h04.38.088857 +0530
Face_file/Sad.jpg,Sound_file/Sad.wav,Sad,Sad,C,s,106,7,11,s,1,2.3033769,None,11,7,106,2,348.8651168,,,,,,,,348.8629609,348.8651168,349.3407743,349.3407743,349.3405748,349.3741024,351.3457478,351.3457478,351.669179,s,1,2.3033769,None,P2,1,2025-11-20_09h04.09.810,Final Solo Project Psy310,,2025.1.1,60.39300142,2025-11-20 09h04.38.088857 +0530
Face_file/Sad.jpg,Sound_file/Happy.wav,Sad,Happy,I,h,0,0,0,h,1,3.1115808,None,0,0,0,6,10.7822571,,,,,,,,10.7791594,10.7822571,11.2115366,11.2115366,11.21186567,11.2950164,13.2112243,13.2112243,14.3285164,h,1,3.1115808,None,P2,1,2025-11-20_09h04.09.810,Final Solo Project Psy310,,2025.1.1,60.39300142,2025-11-20 09h04.38.088857 +0530
Face_file/Happy.jpg,Sound_file/Sad.wav,Happy,Sad,I,s,1,1,0,s,1,4.2986228,None,0,1,1,8,14.4941345,,,,,,,,14.4860457,14.4941345,14.8289619,14.8289619,14.82823797,14.995313,16.828081,16.828081,19.128616,s,1,4.2986228,None,P2,1,2025-11-20_09h04.09.810,Final Solo Project Psy310,,2025.1.1,60.39300142,2025-11-20 09h04.38.088857 +0530
Face_file/Happy.jpg,Sound_file/Anger.wav,Happy,Anger,I,a,3,3,0,a,1,2.9880324,None,0,3,3,3,22.1349733,,,,,,,,22.12564,22.1349733,22.2450638,22.2450638,22.24424587,22.6450343,24.2459917,24.2459917,25.2445818,a,1,2.9880324,None,P2,1,2025-11-20_09h04.09.810,Final Solo Project Psy310,,2025.1.1,60.39300142,2025-11-20 09h04.38.088857 +0530
Face_file/Sad.jpg,Sound_file/Anger.wav,Sad,Anger,I,a,5,5,0,a,1,2.3296771,None,0,5,5,4,28.0703852,,,,,,,,28.059354,28.0703852,28.4273104,28.4273104,28.42691067,28.5774711,30.4293054,30.4293054,30.760538,a,1,2.3296771,None,P2,1,2025-11-20_09h04.09.810,Final Solo Project Psy310,,2025.1.1,60.39300142,2025-11-20 09h04.38.088857 +0530
Face_file/Anger.jpg,Sound_file/Happy.wav,Anger,Happy,I,h,6,6,0,a,0,2.0144655,None,0,6,6,5,30.8178839,,,,,,,,30.8150649,30.8178839,31.2606058,31.2606058,31.26042147,31.3271737,33.2649264,33.2649264,33.2771929,a,0,2.0144655,None,P2,1,2025-11-20_09h04.09.810,Final Solo Project Psy310,,2025.1.1,60.39300142,2025-11-20 09h04.38.088857 +0530
Face_file/Anger.jpg,Sound_file/Sad.wav,Anger,Sad,I,s,8,8,0,s,1,3.0090586,None,0,8,8,7,35.8036892,,,,,,,,35.801292,35.8036892,36.2768437,36.2768437,36.27666547,36.3100461,38.2778409,38.2778409,39.2937968,s,1,3.0090586,None,P2,1,2025-11-20_09h04.09.810,Final Solo Project Psy310,,2025.1.1,60.39300142,2025-11-20 09h04.38.088857 +0530
Face_file/Anger.jpg,Sound_file/Sad.wav,Anger,Sad,I,s,9,0,1,s,1,1.9181201,None,1,0,9,7,39.3221703,,,,,,,,39.3199423,39.3221703,39.7935897,39.7935897,39.79310317,39.8266605,,,41.7269242,s,1,1.9181201,None,P2,1,2025-11-20_09h04.09.810,Final Solo Project Psy310,,2025.1.1,60.39300142,2025-11-20 09h04.38.088857 +0530
Face_file/Sad.jpg,Sound_file/Happy.wav,Sad,Happy,I,h,10,1,1,h,1,2.4011778,None,1,1,10,6,41.7858742,,,,,,,,41.7826943,41.7858742,42.243106,42.243106,42.24287307,42.2932308,44.2452477,44.2452477,44.6599281,h,1,2.4011778,None,P2,1,2025-11-20_09h04.09.810,Final Solo Project Psy310,,2025.1.1,60.39300142,2025-11-20 09h04.38.088857 +0530
Face_file/Happy.jpg,Sound_file/Anger.wav,Happy,Anger,I,a,11,2,1,h,0,2.8821447,None,1,2,11,3,45.0386965,,,,,,,,45.0288158,45.0386965,45.1603169,45.1603169,45.15944937,45.5438813,47.1599386,47.1599386,48.0432614,h,0,2.8821447,None,P2,1,2025-11-20_09h04.09.810,Final Solo Project Psy310,,2025.1.1,60.39300142,2025-11-20 09h04.38.088857 +0530
Face_file/Happy.jpg,Sound_file/Sad.wav,Happy,Sad,I,s,12,3,1,s,1,3.0469206,None,1,3,12,8,48.239812,,,,,,,,48.2296482,48.239812,48.5437788,48.5437788,48.54285347,48.7436244,50.5466052,50.5466052,51.5926434,s,1,3.0469206,None,P2,1,2025-11-20_09h04.09.810,Final Solo Project Psy310,,2025.1.1,60.39300142,2025-11-20 09h04.38.088857 +0530
Face_file/Anger.jpg,Sound_file/Happy.wav,Anger,Happy,I,h,13,4,1,a,0,2.3358075,None,1,4,13,5,51.7179211,,,,,,,,51.7029048,51.7179211,52.092507,52.092507,52.09275617,52.2258502,54.0919298,54.0919298,54.4426713,a,0,2.3358075,None,P2,1,2025-11-20_09h04.09.810,Final Solo Project Psy310,,2025.1.1,60.39300142,2025-11-20 09h04.38.088857 +0530
Face_file/Sad.jpg,Sound_file/Anger.wav,Sad,Anger,I,a,16,7,1,a,1,2.3730855,None,1,7,16,4,60.9895959,,,,,,,,60.9770034,60.9895959,61.258762,61.258762,61.25850347,61.4917788,63.2581813,63.2581813,63.6417967,a,1,2.3730855,None,P2,1,2025-11-20_09h04.09.810,Final Solo Project Psy310,,2025.1.1,60.39300142,2025-11-20 09h04.38.088857 +0530
Face_file/Happy.jpg,Sound_file/Sad.wav,Happy,Sad,I,s,19,1,2,s,1,2.7598315,None,2,1,19,8,69.3376755,,,,,,,,69.3280377,69.3376755,69.6753855,69.6753855,69.67441687,69.8421389,71.6780142,71.6780142,72.441315,s,1,2.7598315,None,P2,1,2025-11-20_09h04.09.810,Final Solo Project Psy310,,2025.1.1,60.39300142,2025-11-20 09h04.38.088857 +0530
Face_file/Sad.jpg,Sound_file/Anger.wav,Sad,Anger,I,a,21,3,2,a,1,2.8725176,None,2,3,21,4,75.1471375,,,,,,,,75.1352571,75.1471375,75.4243425,75.4243425,75.42431557,75.6579188,77.424102,77.424102,78.3080819,a,1,2.8725176,None,P2,1,2025-11-20_09h04.09.810,Final Solo Project Psy310,,2025.1.1,60.39300142,2025-11-20 09h04.38.088857 +0530
Face_file/Anger.jpg,Sound_file/Happy.wav,Anger,Happy,I,h,22,4,2,h,1,2.5312891,None,2,4,22,5,78.355165,,,,,,,,78.3521844,78.355165,78.8076081,78.8076081,78.80751037,78.8574816,80.8072689,80.8072689,81.3408327,h,1,2.5312891,None,P2,1,2025-11-20_09h04.09.810,Final Solo Project Psy310,,2025.1.1,60.39300142,2025-11-20 09h04.38.088857 +0530
Face_file/Sad.jpg,Sound_file/Happy.wav,Sad,Happy,I,h,24,6,2,h,1,1.830591,None,2,6,24,6,83.6275922,,,,,,,,83.6244046,83.6275922,84.0978651,84.0978651,84.09068717,84.1409085,,,85.9408571,h,1,1.830591,None,P2,1,2025-11-20_09h04.09.810,Final Solo Project Psy310,,2025.1.1,60.39300142,2025-11-20 09h04.38.088857 +0530
Face_file/Happy.jpg,Sound_file/Anger.wav,Happy,Anger,I,a,25,7,2,a,1,6.8389,None,2,7,25,3,86.2615154,,,,,,,,86.2524861,86.2615154,86.4576366,86.4576366,86.45694607,86.7742108,88.4575405,88.4575405,93.3069668,a,1,6.8389,None,P2,1,2025-11-20_09h04.09.810,Final Solo Project Psy310,,2025.1.1,60.39300142,2025-11-20 09h04.38.088857 +0530
Face_file/Anger.jpg,Sound_file/Sad.wav,Anger,Sad,I,s,26,8,2,s,1,1.8864134,None,2,8,26,7,93.3579807,,,,,,,,93.345557,93.3579807,93.806666,93.806666,93.80630587,93.8733347,,,95.7071567,s,1,1.8864134,None,P2,1,2025-11-20_09h04.09.810,Final Solo Project Psy310,,2025.1.1,60.39300142,2025-11-20 09h04.38.088857 +0530
Face_file/Anger.jpg,Sound_file/Sad.wav,Anger,Sad,I,s,27,0,3,s,1,1.7120392,None,3,0,27,7,95.7575313,,,,,,,,95.7552566,95.7575313,96.2232792,96.2232792,96.22292407,96.273243,,,97.9401647,s,1,1.7120392,None,P2,1,2025-11-20_09h04.09.810,Final Solo Project Psy310,,2025.1.1,60.39300142,2025-11-20 09h04.38.088857 +0530
Face_file/Sad.jpg,Sound_file/Happy.wav,Sad,Happy,I,h,28,1,3,h,1,1.9865033,None,3,1,28,6,97.9995072,,,,,,,,97.9961996,97.9995072,98.4564153,98.4564153,98.45637037,98.5062657,100.4584679,100.4584679,100.4587949,h,1,1.9865033,None,P2,1,2025-11-20_09h04.09.810,Final Solo Project Psy310,,2025.1.1,60.39300142,2025-11-20 09h04.38.088857 +0530
Face_file/Happy.jpg,Sound_file/Sad.wav,Happy,Sad,I,s,29,2,3,s,1,1.9171799,None,3,2,29,8,100.624725,,,,,,,,100.6154485,100.624725,100.9732011,100.9732011,100.9725239,101.1400292,,,102.9071592,s,1,1.9171799,None,P2,1,2025-11-20_09h04.09.810,Final Solo Project Psy310,,2025.1.1,60.39300142,2025-11-20 09h04.38.088857 +0530
Face_file/Happy.jpg,Sound_file/Anger.wav,Happy,Anger,I,a,31,4,3,a,1,2.4136133,None,3,4,31,3,105.4064016,,,,,,,,105.3964203,105.4064016,105.6066832,105.6066832,105.6059945,105.9064254,107.6063469,107.6063469,108.0225179,a,1,2.4136133,None,P2,1,2025-11-20_09h04.09.810,Final Solo Project Psy310,,2025.1.1,60.39300142,2025-11-20 09h04.38.088857 +0530
Face_file/Anger.jpg,Sound_file/Happy.wav,Anger,Happy,I,h,32,5,3,h,1,2.5457571,None,3,5,32,5,108.0844732,,,,,,,,108.0724972,108.0844732,108.5224315,108.5224315,108.5225061,108.5888691,110.527046,110.527046,111.0723288,h,1,2.5457571,None,P2,1,2025-11-20_09h04.09.810,Final Solo Project Psy310,,2025.1.1,60.39300142,2025-11-20 09h04.38.088857 +0530
Face_file/Sad.jpg,Sound_file/Anger.wav,Sad,Anger,I,a,34,7,3,a,1,2.4740111,None,3,7,34,4,114.2428763,,,,,,,,114.2397681,114.2428763,114.6052718,114.6052718,114.6051613,114.7553292,116.6081898,116.6081898,117.0889486,a,1,2.4740111,None,P2,1,2025-11-20_09h04.09.810,Final Solo Project Psy310,,2025.1.1,60.39300142,2025-11-20 09h04.38.088857 +0530
Face_file/Happy.jpg,Sound_file/Anger.wav,Happy,Anger,I,a,37,1,4,a,1,2.5902732,None,4,1,37,3,123.5057783,,,,,,,,123.4959739,123.5057783,123.6385837,123.6385837,123.6376085,124.0052223,125.637676,125.637676,126.2382877,a,1,2.5902732,None,P2,1,2025-11-20_09h04.09.810,Final Solo Project Psy310,,2025.1.1,60.39300142,2025-11-20 09h04.38.088857 +0530
Face_file/Happy.jpg,Sound_file/Sad.wav,Happy,Sad,I,s,39,3,4,s,1,2.963095,None,4,3,39,8,129.4373791,,,,,,,,129.4262628,129.4373791,129.6716605,129.6716605,129.6709131,129.9382512,131.6703664,131.6703664,132.6385012,s,1,2.963095,None,P2,1,2025-11-20_09h04.09.810,Final Solo Project Psy310,,2025.1.1,60.39300142,2025-11-20 09h04.38.088857 +0530
Face_file/Sad.jpg,Sound_file/Happy.wav,Sad,Happy,I,h,40,4,4,h,1,3.545159,None,4,4,40,6,132.691766,,,,,,,,132.6792401,132.691766,133.154149,133.154149,133.153836,133.2040576,135.1560906,135.1560906,136.7041824,h,1,3.545159,None,P2,1,2025-11-20_09h04.09.810,Final Solo Project Psy310,,2025.1.1,60.39300142,2025-11-20 09h04.38.088857 +0530
Face_file/Anger.jpg,Sound_file/Happy.wav,Anger,Happy,I,h,42,6,4,h,1,2.9019254,None,4,6,42,5,139.792135,,,,,,,,139.7796729,139.792135,140.2036903,140.2036903,140.2033987,140.3036944,142.2038665,142.2038665,143.1207265,h,1,2.9019254,None,P2,1,2025-11-20_09h04.09.810,Final Solo Project Psy310,,2025.1.1,60.39300142,2025-11-20 09h04.38.088857 +0530
Face_file/Anger.jpg,Sound_file/Sad.wav,Anger,Sad,I,s,43,7,4,s,1,2.4437891,None,4,7,43,7,143.1579675,,,,,,,,143.1547044,143.1579675,143.6201848,143.6201848,143.6198889,143.6701497,145.6197319,145.6197319,146.0699044,s,1,2.4437891,None,P2,1,2025-11-20_09h04.09.810,Final Solo Project Psy310,,2025.1.1,60.39300142,2025-11-20 09h04.38.088857 +0530
Face_file/Sad.jpg,Sound_file/Anger.wav,Sad,Anger,I,a,44,8,4,a,1,2.4220975,None,4,8,44,4,146.2047132,,,,,,,,146.2011205,146.2047132,146.569974,146.569974,146.570203,146.7197953,148.5695943,148.5695943,149.0035801,a,1,2.4220975,None,P2,1,2025-11-20_09h04.09.810,Final Solo Project Psy310,,2025.1.1,60.39300142,2025-11-20 09h04.38.088857 +0530
Face_file/Happy.jpg,Sound_file/Sad.wav,Happy,Sad,I,s,45,0,5,s,1,2.96219,None,5,0,45,8,149.1820525,,,,,,,,149.1716385,149.1820525,149.503599,149.503599,149.5028726,149.6869127,151.5076365,151.5076365,152.4698292,s,1,2.96219,None,P2,1,2025-11-20_09h04.09.810,Final Solo Project Psy310,,2025.1.1,60.39300142,2025-11-20 09h04.38.088857 +0530
Face_file/Happy.jpg,Sound_file/Anger.wav,Happy,Anger,I,a,47,2,5,a,1,2.2876096,None,5,2,47,3,155.86153,,,,,,,,155.8521129,155.86153,156.0701113,156.0701113,156.0688913,156.3699094,158.068955,158.068955,158.3696822,a,1,2.2876096,None,P2,1,2025-11-20_09h04.09.810,Final Solo Project Psy310,,2025.1.1,60.39300142,2025-11-20 09h04.38.088857 +0530
Face_file/Sad.jpg,Sound_file/Anger.wav,Sad,Anger,I,a,48,3,5,a,1,2.240734,None,5,3,48,4,158.5369296,,,,,,,,158.5259948,158.5369296,158.869287,158.869287,158.8690477,159.0357809,160.8688363,160.8688363,161.1194236,a,1,2.240734,None,P2,1,2025-11-20_09h04.09.810,Final Solo Project Psy310,,2025.1.1,60.39300142,2025-11-20 09h04.38.088857 +0530
Face_file/Anger.jpg,Sound_file/Sad.wav,Anger,Sad,I,s,49,4,5,s,1,2.6194175,None,5,4,49,7,161.1475263,,,,,,,,161.1449404,161.1475263,161.6189017,161.6189017,161.6187168,161.6522578,163.6187543,163.6187543,164.2523465,s,1,2.6194175,None,P2,1,2025-11-20_09h04.09.810,Final Solo Project Psy310,,2025.1.1,60.39300142,2025-11-20 09h04.38.088857 +0530
Face_file/Sad.jpg,Sound_file/Happy.wav,Sad,Happy,I,h,50,5,5,h,1,2.4240875,None,5,5,50,6,164.2891075,,,,,,,,164.285918,164.2891075,164.7522365,164.7522365,164.7519743,164.8021599,166.7538252,166.7538252,167.1856242,h,1,2.4240875,None,P2,1,2025-11-20_09h04.09.810,Final Solo Project Psy310,,2025.1.1,60.39300142,2025-11-20 09h04.38.088857 +0530
Face_file/Anger.jpg,Sound_file/Happy.wav,Anger,Happy,I,h,53,8,5,h,1,13.3543607,None,5,8,53,5,173.3219188,,,,,,,,173.3197961,173.3219188,173.7684762,173.7684762,173.7683126,173.8349972,175.7677165,175.7677165,187.1345467,h,1,13.3543607,None,P2,1,2025-11-20_09h04.09.810,Final Solo Project Psy310,,2025.1.1,60.39300142,2025-11-20 09h04.38.088857 +0530
Face_file/Anger.jpg,Sound_file/Happy.wav,Anger,Happy,I,h,55,1,6,h,1,2.4154156,None,6,1,55,5,190.2682148,,,,,,,,190.2553316,190.2682148,190.6339302,190.6339302,190.6337493,190.7838885,192.6383828,192.6383828,193.0505725,h,1,2.4154156,None,P2,1,2025-11-20_09h04.09.810,Final Solo Project Psy310,,2025.1.1,60.39300142,2025-11-20 09h04.38.088857 +0530
Face_file/Sad.jpg,Sound_file/Happy.wav,Sad,Happy,I,h,56,2,6,h,1,2.1717659,None,6,2,56,6,193.101257,,,,,,,,193.0980337,193.101257,193.550377,193.550377,193.5501106,193.6168305,195.5499836,195.5499836,195.7337512,h,1,2.1717659,None,P2,1,2025-11-20_09h04.09.810,Final Solo Project Psy310,,2025.1.1,60.39300142,2025-11-20 09h04.38.088857 +0530
Face_file/Happy.jpg,Sound_file/Anger.wav,Happy,Anger,I,a,58,4,6,a,1,2.4845091,None,6,4,58,3,198.9192836,,,,,,,,198.9089737,198.9192836,199.133943,199.133943,199.1330203,199.4340047,201.1335658,201.1335658,201.6334564,a,1,2.4845091,None,P2,1,2025-11-20_09h04.09.810,Final Solo Project Psy310,,2025.1.1,60.39300142,2025-11-20 09h04.38.088857 +0530
Face_file/Sad.jpg,Sound_file/Anger.wav,Sad,Anger,I,a,59,5,6,a,1,2.3891528,None,6,5,59,4,201.8450205,,,,,,,,201.8330554,201.8450205,202.1330312,202.1330312,202.133069,202.3498214,204.1360935,204.1360935,204.5332988,a,1,2.3891528,None,P2,1,2025-11-20_09h04.09.810,Final Solo Project Psy310,,2025.1.1,60.39300142,2025-11-20 09h04.38.088857 +0530
Face_file/Happy.jpg,Sound_file/Sad.wav,Happy,Sad,I,s,60,6,6,s,1,2.5716655,None,6,6,60,8,204.707968,,,,,,,,204.6977517,204.707968,205.0334642,205.0334642,205.0326652,205.2168505,207.0339263,207.0339263,207.6164915,s,1,2.5716655,None,P2,1,2025-11-20_09h04.09.810,Final Solo Project Psy310,,2025.1.1,60.39300142,2025-11-20 09h04.38.088857 +0530
Face_file/Anger.jpg,Sound_file/Sad.wav,Anger,Sad,I,s,62,8,6,s,1,2.4338811,None,6,8,62,7,210.7161947,,,,,,,,210.7137928,210.7161947,211.1831356,211.1831356,211.1825158,211.215979,213.1856123,213.1856123,213.6328664,s,1,2.4338811,None,P2,1,2025-11-20_09h04.09.810,Final Solo Project Psy310,,2025.1.1,60.39300142,2025-11-20 09h04.38.088857 +0530
Face_file/Sad.jpg,Sound_file/Anger.wav,Sad,Anger,I,a,64,1,7,a,1,2.3311777,None,7,1,64,4,216.6048142,,,,,,,,216.6015286,216.6048142,216.9322418,216.9322418,216.9320087,217.1155573,218.931763,218.931763,219.2656652,a,1,2.3311777,None,P2,1,2025-11-20_09h04.09.810,Final Solo Project Psy310,,2025.1.1,60.39300142,2025-11-20 09h04.38.088857 +0530
Face_file/Anger.jpg,Sound_file/Sad.wav,Anger,Sad,I,s,65,2,7,s,1,2.4667418,None,7,2,65,7,219.3008802,,,,,,,,219.297141,219.3008802,219.7654043,219.7654043,219.7651337,219.8155072,221.7649913,221.7649913,222.2485714,s,1,2.4667418,None,P2,1,2025-11-20_09h04.09.810,Final Solo Project Psy310,,2025.1.1,60.39300142,2025-11-20 09h04.38.088857 +0530
Face_file/Happy.jpg,Sound_file/Sad.wav,Happy,Sad,I,s,66,3,7,s,1,2.3609391,None,7,3,66,8,222.3986672,,,,,,,,222.3887372,222.3986672,222.74906,222.74906,222.7485683,222.8990473,224.7531473,224.7531473,225.1151367,s,1,2.3609391,None,P2,1,2025-11-20_09h04.09.810,Final Solo Project Psy310,,2025.1.1,60.39300142,2025-11-20 09h04.38.088857 +0530
Face_file/Happy.jpg,Sound_file/Anger.wav,Happy,Anger,I,a,67,4,7,a,1,2.1421686,None,7,4,67,3,225.4043616,,,,,,,,225.3955335,225.4043616,225.6157385,225.6157385,225.6148296,225.9157108,227.6171616,227.6171616,227.764843,a,1,2.1421686,None,P2,1,2025-11-20_09h04.09.810,Final Solo Project Psy310,,2025.1.1,60.39300142,2025-11-20 09h04.38.088857 +0530
Face_file/Anger.jpg,Sound_file/Happy.wav,Anger,Happy,I,h,68,5,7,h,1,2.3371353,None,7,5,68,5,227.8382229,,,,,,,,227.8264822,227.8382229,228.2650331,228.2650331,228.2645998,228.3483629,230.2645638,230.2645638,230.615577,h,1,2.3371353,None,P2,1,2025-11-20_09h04.09.810,Final Solo Project Psy310,,2025.1.1,60.39300142,2025-11-20 09h04.38.088857 +0530
Face_file/Sad.jpg,Sound_file/Happy.wav,Sad,Happy,I,h,71,8,7,h,1,6.9751352,None,7,8,71,6,236.8206438,,,,,,,,236.8184058,236.8206438,237.2974034,237.2974034,237.2974826,237.3309218,239.2971376,239.2971376,244.2807333,h,1,6.9751352,None,P2,1,2025-11-20_09h04.09.810,Final Solo Project Psy310,,2025.1.1,60.39300142,2025-11-20 09h04.38.088857 +0530
Face_file/Anger.jpg,Sound_file/Sad.wav,Anger,Sad,I,s,72,0,8,s,1,2.5255841,None,8,0,72,7,244.3178593,,,,,,,,244.3146203,244.3178593,244.7807416,244.7807416,244.780509,244.8305947,246.7857792,246.7857792,247.3143429,s,1,2.5255841,None,P2,1,2025-11-20_09h04.09.810,Final Solo Project Psy310,,2025.1.1,60.39300142,2025-11-20 09h04.38.088857 +0530
Face_file/Anger.jpg,Sound_file/Happy.wav,Anger,Happy,I,h,73,1,8,h,1,4.323665,None,8,1,73,5,247.366565,,,,,,,,247.3638223,247.366565,247.8135867,247.8135867,247.8136668,247.8804006,249.8158455,249.8158455,252.1473796,h,1,4.323665,None,P2,1,2025-11-20_09h04.09.810,Final Solo Project Psy310,,2025.1.1,60.39300142,2025-11-20 09h04.38.088857 +0530
Face_file/Sad.jpg,Sound_file/Anger.wav,Sad,Anger,I,a,74,2,8,a,1,2.3232718,None,8,2,74,4,252.2938615,,,,,,,,252.2900232,252.2938615,252.6468196,252.6468196,252.6469133,252.7969936,254.6490213,254.6490213,254.9802886,a,1,2.3232718,None,P2,1,2025-11-20_09h04.09.810,Final Solo Project Psy310,,2025.1.1,60.39300142,2025-11-20 09h04.38.088857 +0530
Face_file/Happy.jpg,Sound_file/Anger.wav,Happy,Anger,I,a,76,4,8,a,1,3.4518443,None,8,4,76,3,258.1344192,,,,,,,,258.1260929,258.1344192,258.3969872,258.3969872,258.3962136,258.6471004,260.3972878,260.3972878,261.8634901,a,1,3.4518443,None,P2,1,2025-11-20_09h04.09.810,Final Solo Project Psy310,,2025.1.1,60.39300142,2025-11-20 09h04.38.088857 +0530
Face_file/Happy.jpg,Sound_file/Sad.wav,Happy,Sad,I,s,77,5,8,s,1,2.3434106,None,8,5,77,8,262.0002502,,,,,,,,261.9919404,262.0002502,262.3636899,262.3636899,262.3628843,262.5138349,264.3666308,264.3666308,264.7132876,s,1,2.3434106,None,P2,1,2025-11-20_09h04.09.810,Final Solo Project Psy310,,2025.1.1,60.39300142,2025-11-20 09h04.38.088857 +0530
Face_file/Sad.jpg,Sound_file/Happy.wav,Sad,Happy,I,h,79,7,8,h,1,2.898134,None,8,7,79,6,267.5954009,,,,,,,,267.5924061,267.5954009,268.0621118,268.0621118,268.0622133,268.0956177,270.0674266,270.0674266,270.9628224,h,1,2.898134,None,P2,1,2025-11-20_09h04.09.810,Final Solo Project Psy310,,2025.1.1,60.39300142,2025-11-20 09h04.38.088857 +0530
Face_file/Anger.jpg,Sound_file/Sad.wav,Anger,Sad,I,s,81,0,9,s,1,2.5834073,None,9,0,81,7,273.7646428,,,,,,,,273.7622964,273.7646428,274.2290449,274.2290449,274.2286339,274.2787359,276.2340501,276.2340501,276.8291729,s,1,2.5834073,None,P2,1,2025-11-20_09h04.09.810,Final Solo Project Psy310,,2025.1.1,60.39300142,2025-11-20 09h04.38.088857 +0530
Face_file/Happy.jpg,Sound_file/Sad.wav,Happy,Sad,I,s,83,2,9,s,1,2.3192941,None,9,2,83,8,280.2856079,,,,,,,,280.2772325,280.2856079,280.6453486,280.6453486,280.6449102,280.7954109,282.645206,282.645206,282.9782731,s,1,2.3192941,None,P2,1,2025-11-20_09h04.09.810,Final Solo Project Psy310,,2025.1.1,60.39300142,2025-11-20 09h04.38.088857 +0530
Face_file/Sad.jpg,Sound_file/Happy.wav,Sad,Happy,I,h,84,3,9,h,1,2.3257484,None,9,3,84,6,283.0649022,,,,,,,,283.0536535,283.0649022,283.4782002,283.4782002,283.4778144,283.5781467,285.477973,285.477973,285.8122887,h,1,2.3257484,None,P2,1,2025-11-20_09h04.09.810,Final Solo Project Psy310,,2025.1.1,60.39300142,2025-11-20 09h04.38.088857 +0530
Face_file/Happy.jpg,Sound_file/Anger.wav,Happy,Anger,I,a,85,4,9,a,1,2.3185499,None,9,4,85,3,286.0994388,,,,,,,,286.089699,286.0994388,286.3288131,286.3288131,286.3278802,286.6119416,288.3280216,288.3280216,288.6617724,a,1,2.3185499,None,P2,1,2025-11-20_09h04.09.810,Final Solo Project Psy310,,2025.1.1,60.39300142,2025-11-20 09h04.38.088857 +0530
Face_file/Anger.jpg,Sound_file/Happy.wav,Anger,Happy,I,h,87,6,9,h,1,2.9773828,None,9,6,87,5,291.5264509,,,,,,,,291.5237378,291.5264509,291.9778886,291.9778886,291.9776149,292.0277719,293.9774595,293.9774595,294.9615568,h,1,2.9773828,None,P2,1,2025-11-20_09h04.09.810,Final Solo Project Psy310,,2025.1.1,60.39300142,2025-11-20 09h04.38.088857 +0530
Face_file/Sad.jpg,Sound_file/Anger.wav,Sad,Anger,I,a,88,7,9,a,1,3.3594623,None,9,7,88,4,295.1375806,,,,,,,,295.1342445,295.1375806,295.4608888,295.4608888,295.4607097,295.6440475,297.4666381,297.4666381,298.8277755,a,1,3.3594623,None,P2,1,2025-11-20_09h04.09.810,Final Solo Project Psy310,,2025.1.1,60.39300142,2025-11-20 09h04.38.088857 +0530
Face_file/Anger.jpg,Sound_file/Happy.wav,Anger,Happy,I,h,90,0,10,h,1,2.2134417,None,10,0,90,5,301.6942697,,,,,,,,301.6914748,301.6942697,302.1436363,302.1436363,302.1437511,302.193583,304.1475058,304.1475058,304.3609632,h,1,2.2134417,None,P2,1,2025-11-20_09h04.09.810,Final Solo Project Psy310,,2025.1.1,60.39300142,2025-11-20 09h04.38.088857 +0530
Face_file/Anger.jpg,Sound_file/Sad.wav,Anger,Sad,I,s,92,2,10,s,1,2.2525025,None,10,2,92,7,307.2609372,,,,,,,,307.2588935,307.2609372,307.726694,307.726694,307.7265706,307.7602147,309.728192,309.728192,309.9938675,s,1,2.2525025,None,P2,1,2025-11-20_09h04.09.810,Final Solo Project Psy310,,2025.1.1,60.39300142,2025-11-20 09h04.38.088857 +0530
Face_file/Happy.jpg,Sound_file/Anger.wav,Happy,Anger,I,a,93,3,10,a,1,2.3176895,None,10,3,93,3,310.269034,,,,,,,,310.2581843,310.269034,310.5101751,310.5101751,310.5096623,310.7770804,312.5094431,312.5094431,312.8436691,a,1,2.3176895,None,P2,1,2025-11-20_09h04.09.810,Final Solo Project Psy310,,2025.1.1,60.39300142,2025-11-20 09h04.38.088857 +0530
Face_file/Sad.jpg,Sound_file/Happy.wav,Sad,Happy,I,h,94,4,10,h,1,2.5472681,None,10,4,94,6,312.9053401,,,,,,,,312.8932193,312.9053401,313.3598694,313.3598694,313.3595889,313.4097316,315.3595569,315.3595569,315.9100632,h,1,2.5472681,None,P2,1,2025-11-20_09h04.09.810,Final Solo Project Psy310,,2025.1.1,60.39300142,2025-11-20 09h04.38.088857 +0530
Face_file/Happy.jpg,Sound_file/Sad.wav,Happy,Sad,I,s,96,6,10,s,1,2.2575935,None,10,6,96,8,318.8666921,,,,,,,,318.8584885,318.8666921,319.2265774,319.2265774,319.2259577,319.3763824,321.2267442,321.2267442,321.4925411,s,1,2.2575935,None,P2,1,2025-11-20_09h04.09.810,Final Solo Project Psy310,,2025.1.1,60.39300142,2025-11-20 09h04.38.088857 +0530
Face_file/Sad.jpg,Sound_file/Anger.wav,Sad,Anger,I,a,97,7,10,a,1,2.3451747,None,10,7,97,4,321.6501069,,,,,,,,321.6366535,321.6501069,321.9928262,321.9928262,321.9922776,322.1594265,323.9924256,323.9924256,324.3427252,a,1,2.3451747,None,P2,1,2025-11-20_09h04.09.810,Final Solo Project Psy310,,2025.1.1,60.39300142,2025-11-20 09h04.38.088857 +0530
Face_file/Anger.jpg,Sound_file/Happy.wav,Anger,Happy,I,h,99,0,11,h,1,3.1145828,None,11,0,99,5,327.2991435,,,,,,,,327.2961338,327.2991435,327.7420755,327.7420755,327.7421709,327.808957,329.7457966,329.7457966,330.8591359,h,1,3.1145828,None,P2,1,2025-11-20_09h04.09.810,Final Solo Project Psy310,,2025.1.1,60.39300142,2025-11-20 09h04.38.088857 +0530
Face_file/Happy.jpg,Sound_file/Anger.wav,Happy,Anger,I,a,101,2,11,a,1,2.4859452,None,11,2,101,3,334.1760023,,,,,,,,334.1665699,334.1760023,334.4088041,334.4088041,334.40828,334.6755713,336.4078914,336.4078914,336.9086771,a,1,2.4859452,None,P2,1,2025-11-20_09h04.09.810,Final Solo Project Psy310,,2025.1.1,60.39300142,2025-11-20 09h04.38.088857 +0530
Face_file/Anger.jpg,Sound_file/Sad.wav,Anger,Sad,I,s,102,3,11,s,1,2.5256732,None,11,3,102,7,336.9508519,,,,,,,,336.939925,336.9508519,337.4082199,337.4082199,337.4079518,337.4582998,339.4078751,339.4078751,339.9418711,s,1,2.5256732,None,P2,1,2025-11-20_09h04.09.810,Final Solo Project Psy310,,2025.1.1,60.39300142,2025-11-20 09h04.38.088857 +0530
Face_file/Sad.jpg,Sound_file/Happy.wav,Sad,Happy,I,h,103,4,11,h,1,2.4359963,None,11,4,103,6,339.9795232,,,,,,,,339.9762364,339.9795232,340.4414341,340.4414341,340.4413539,340.4915407,342.4447702,342.4447702,342.8919655,h,1,2.4359963,None,P2,1,2025-11-20_09h04.09.810,Final Solo Project Psy310,,2025.1.1,60.39300142,2025-11-20 09h04.38.088857 +0530
Face_file/Sad.jpg,Sound_file/Anger.wav,Sad,Anger,I,a,105,6,11,a,1,2.5062231,None,11,6,105,4,345.9898668,,,,,,,,345.9779057,345.9898668,346.3244094,346.3244094,346.3241999,346.4910583,348.3268614,348.3268614,348.8414327,a,1,2.5062231,None,P2,1,2025-11-20_09h04.09.810,Final Solo Project Psy310,,2025.1.1,60.39300142,2025-11-20 09h04.38.088857 +0530
Face_file/Happy.jpg,Sound_file/Sad.wav,Happy,Sad,I,s,107,8,11,s,1,1.9274929,None,11,8,107,8,351.8271386,,,,,,,,351.8177613,351.8271386,352.1745485,352.1745485,352.1736421,352.341186,,,354.108092,s,1,1.9274929,None,P2,1,2025-11-20_09h04.09.810,Final Solo Project Psy310,,2025.1.1,60.39300142,2025-11-20 09h04.38.088857 +0530
,,,,,,,,,,,,,,,,,,,0.0018689,0.016205,10.7081646,space,10.6782631,None,,,,,,,,,,,,,,P2,1,2025-11-20_09h04.09.810,Final Solo Project Psy310,,2025.1.1,60.39300142,2025-11-20 09h04.38.088857 +0530
,,,,,,,,,,,2.819320892,,,,,,,,,,,,,,,,,,,,,,,,,,,,,,,,,,
,,,,,,,,,,,2.364130919,,,,,,,,,,,,,,,,,,,,,,,,,,,,,,,,,,
