Face_file,Sound_file,Face_emotion,Sound_emotion,Congruency,corr_resp,thisN,thisTrialN,thisRepN,key_resp.keys,key_resp.corr,key_resp.rt,key_resp.duration,trials.thisRepN,trials.thisTrialN,trials.thisN,trials.thisIndex,thisRow.t,notes,Instruction.started,key_instruct.started,Instruction.stopped,key_instruct.keys,key_instruct.rt,key_instruct.duration,trial.started,Fixation.started,Image.started,key_resp.started,Sound.started,Fixation.stopped,Sound.stopped,Image.stopped,trial.stopped,trials.key_resp.keys,trials.key_resp.corr,trials.key_resp.rt,trials.key_resp.duration,participant,session,date,expName,expVersion,psychopyVersion,frameRate,expStart,
,,,,,,,,,,,,,,,,,,,0.0014408999995794147,0.012877700006356463,21.15493809999316,space,21.110282300011022,None,,,,,,,,,,,,,,P3,001,2025-11-20_10h21.40.014,Final Solo Project Psy310,,2025.1.1,59.963290473273645,2025-11-20 10h21.49.752202 +0530,
Face_file/Sad.jpg,Sound_file/Sad.wav,Sad,Sad,C,s,0,0,0,s,1,2.763644699996803,None,0,0,0,2,21.196507699991344,,,,,,,,21.193543500005035,21.196507699991344,21.667830499995034,21.667830499995034,21.659677666674057,21.709607400000095,23.665229500009445,23.675923900009366,24.443206800002372,s,1,2.763644699996803,None,P3,001,2025-11-20_10h21.40.014,Final Solo Project Psy310,,2025.1.1,59.963290473273645,2025-11-20 10h21.49.752202 +0530,
Face_file/Anger.jpg,Sound_file/Happy.wav,Anger,Happy,I,h,1,1,0,h,1,1.5465541000012308,None,0,1,1,5,24.514813199988566,,,,,,,,24.512560200004373,24.514813199988566,24.94258639999316,24.94258639999316,24.942456566674323,25.02617910000845,,,26.493294499989133,h,1,1.5465541000012308,None,P3,001,2025-11-20_10h21.40.014,Final Solo Project Psy310,,2025.1.1,59.963290473273645,2025-11-20 10h21.49.752202 +0530,
Face_file/Sad.jpg,Sound_file/Anger.wav,Sad,Anger,I,a,2,2,0,a,1,1.4816965000063647,None,0,2,2,4,26.67924930001027,,,,,,,,26.676348699984374,26.67924930001027,27.009493199991994,27.009493199991994,27.00928216666604,27.19256279998808,,,28.49305920000188,a,1,1.4816965000063647,None,P3,001,2025-11-20_10h21.40.014,Final Solo Project Psy310,,2025.1.1,59.963290473273645,2025-11-20 10h21.49.752202 +0530,
Face_file/Happy.jpg,Sound_file/Anger.wav,Happy,Anger,I,a,3,3,0,a,1,1.2613411999773234,None,0,3,3,3,28.83717849999084,,,,,,,,28.828817800007528,28.83717849999084,29.026495900005102,29.026495900005102,29.025838766658367,29.343057299993234,,,30.29380109999329,a,1,1.2613411999773234,None,P3,001,2025-11-20_10h21.40.014,Final Solo Project Psy310,,2025.1.1,59.963290473273645,2025-11-20 10h21.49.752202 +0530,
Face_file/Happy.jpg,Sound_file/Happy.wav,Happy,Happy,C,h,4,4,0,h,1,1.393486999993911,None,0,4,4,1,30.452711199992336,,,,,,,,30.44475070000044,30.452711199992336,30.826478400005726,30.826478400005726,30.825568166652616,30.95952129998477,,,32.227100999996765,h,1,1.393486999993911,None,P3,001,2025-11-20_10h21.40.014,Final Solo Project Psy310,,2025.1.1,59.963290473273645,2025-11-20 10h21.49.752202 +0530,
Face_file/Anger.jpg,Sound_file/Anger.wav,Anger,Anger,C,a,5,5,0,a,1,2.294482199999038,None,0,5,5,0,32.46649600000819,,,,,,,,32.464016399986576,32.46649600000819,32.75883119998616,32.75883119998616,32.75900666666372,32.975398499984294,34.758765400009,34.758765400009,35.05917839999893,a,1,2.294482199999038,None,P3,001,2025-11-20_10h21.40.014,Final Solo Project Psy310,,2025.1.1,59.963290473273645,2025-11-20 10h21.49.752202 +0530,
Face_file/Sad.jpg,Sound_file/Happy.wav,Sad,Happy,I,h,6,6,0,h,1,1.4215841999975964,None,0,6,6,6,35.087265200010734,,,,,,,,35.084521599987056,35.087265200010734,35.55861969999387,35.55861969999387,35.558500566669196,35.59203699999489,,,36.99278369999956,h,1,1.4215841999975964,None,P3,001,2025-11-20_10h21.40.014,Final Solo Project Psy310,,2025.1.1,59.963290473273645,2025-11-20 10h21.49.752202 +0530,
Face_file/Anger.jpg,Sound_file/Sad.wav,Anger,Sad,I,s,7,7,0,s,1,1.3015706000151113,None,0,7,7,7,37.034813700011,,,,,,,,37.03194919999805,37.034813700011,37.52538269999786,37.52538269999786,37.525118766676556,37.542216000001645,,,38.84237939998275,s,1,1.3015706000151113,None,P3,001,2025-11-20_10h21.40.014,Final Solo Project Psy310,,2025.1.1,59.963290473273645,2025-11-20 10h21.49.752202 +0530,
Face_file/Happy.jpg,Sound_file/Sad.wav,Happy,Sad,I,s,8,8,0,s,1,1.7403843000065535,None,0,8,8,8,38.978564299992286,,,,,,,,38.96958989999257,38.978564299992286,39.359089800011134,39.359089800011134,39.358460466672355,39.49257040000521,,,41.109794199990574,s,1,1.7403843000065535,None,P3,001,2025-11-20_10h21.40.014,Final Solo Project Psy310,,2025.1.1,59.963290473273645,2025-11-20 10h21.49.752202 +0530,
Face_file/Happy.jpg,Sound_file/Happy.wav,Happy,Happy,C,h,9,0,1,h,1,1.1209307000099216,None,1,0,9,1,41.25810300000012,,,,,,,,41.24898810000741,41.25810300000012,41.6257084000099,41.6257084000099,41.62503676666917,41.75912299999618,,,42.75970319999033,h,1,1.1209307000099216,None,P3,001,2025-11-20_10h21.40.014,Final Solo Project Psy310,,2025.1.1,59.963290473273645,2025-11-20 10h21.49.752202 +0530,
Face_file/Anger.jpg,Sound_file/Anger.wav,Anger,Anger,C,a,10,1,1,a,1,1.3620272999978624,None,1,1,10,0,42.918642800010275,,,,,,,,42.907018900004914,42.918642800010275,43.29174939999939,43.29174939999939,43.291668666676074,43.42492369998945,,,44.65912259998731,a,1,1.3620272999978624,None,P3,001,2025-11-20_10h21.40.014,Final Solo Project Psy310,,2025.1.1,59.963290473273645,2025-11-20 10h21.49.752202 +0530,
Face_file/Sad.jpg,Sound_file/Sad.wav,Sad,Sad,C,s,11,2,1,s,1,1.0589798000000883,None,1,2,11,2,44.69451050000498,,,,,,,,44.69162649998907,44.69451050000498,45.19141800000216,45.19141800000216,45.19150896667658,45.20835880000959,,,46.258770599990385,s,1,1.0589798000000883,None,P3,001,2025-11-20_10h21.40.014,Final Solo Project Psy310,,2025.1.1,59.963290473273645,2025-11-20 10h21.49.752202 +0530,
Face_file/Sad.jpg,Sound_file/Happy.wav,Sad,Happy,I,h,12,3,1,h,1,1.067324900010135,None,1,3,12,6,46.30065329998615,,,,,,,,46.29854379998869,46.30065329998615,46.77472799998941,46.77472799998941,46.774815166664,46.80813499999931,,,47.858685499988496,h,1,1.067324900010135,None,P3,001,2025-11-20_10h21.40.014,Final Solo Project Psy310,,2025.1.1,59.963290473273645,2025-11-20 10h21.49.752202 +0530,
Face_file/Happy.jpg,Sound_file/Anger.wav,Happy,Anger,I,a,13,4,1,a,1,1.8429209999740124,None,1,4,13,3,48.12012449998292,,,,,,,,48.11174480000045,48.12012449998292,48.39151029998902,48.39151029998902,48.39088126665253,48.624915899999905,,,50.24216319998959,a,1,1.8429209999740124,None,P3,001,2025-11-20_10h21.40.014,Final Solo Project Psy310,,2025.1.1,59.963290473273645,2025-11-20 10h21.49.752202 +0530,
Face_file/Happy.jpg,Sound_file/Sad.wav,Happy,Sad,I,s,14,5,1,h,0,1.1746562999906018,None,1,5,14,8,50.38685469998745,,,,,,,,50.37830219999887,50.38685469998745,50.75812789998599,50.75812789998599,50.75739856667157,50.89155140001094,,,51.94322290000855,h,0,1.1746562999906018,None,P3,001,2025-11-20_10h21.40.014,Final Solo Project Psy310,,2025.1.1,59.963290473273645,2025-11-20 10h21.49.752202 +0530,
Face_file/Anger.jpg,Sound_file/Sad.wav,Anger,Sad,I,s,15,6,1,s,1,0.9043614999973215,None,1,6,15,7,52.048077799991006,,,,,,,,52.03450999999768,52.048077799991006,52.474456299998565,52.474456299998565,52.47436676666645,52.55768130000797,,,53.391680200002156,s,1,0.9043614999973215,None,P3,001,2025-11-20_10h21.40.014,Final Solo Project Psy310,,2025.1.1,59.963290473273645,2025-11-20 10h21.49.752202 +0530,
Face_file/Sad.jpg,Sound_file/Anger.wav,Sad,Anger,I,a,16,7,1,a,1,1.1662629000202287,None,1,7,16,4,53.53637739998521,,,,,,,,53.53342479999992,53.53637739998521,53.924094699992565,53.924094699992565,53.92419516665201,54.041192300006514,,,55.09160270000575,a,1,1.1662629000202287,None,P3,001,2025-11-20_10h21.40.014,Final Solo Project Psy310,,2025.1.1,59.963290473273645,2025-11-20 10h21.49.752202 +0530,
Face_file/Anger.jpg,Sound_file/Happy.wav,Anger,Happy,I,h,17,8,1,h,1,1.2493926000024658,None,1,8,17,5,55.1424410000036,,,,,,,,55.13978160000988,55.1424410000036,55.607569899992086,55.607569899992086,55.60747876667689,55.657757200009655,,,56.85807349998504,h,1,1.2493926000024658,None,P3,001,2025-11-20_10h21.40.014,Final Solo Project Psy310,,2025.1.1,59.963290473273645,2025-11-20 10h21.49.752202 +0530,
Face_file/Happy.jpg,Sound_file/Anger.wav,Happy,Anger,I,a,18,0,2,a,1,1.5904080999898724,None,2,0,18,3,57.09654659999069,,,,,,,,57.08779289998347,57.09654659999069,57.37473459998728,57.37473459998728,57.373978066669466,57.60796799999662,,,58.97501709999051,a,1,1.5904080999898724,None,P3,001,2025-11-20_10h21.40.014,Final Solo Project Psy310,,2025.1.1,59.963290473273645,2025-11-20 10h21.49.752202 +0530,
Face_file/Sad.jpg,Sound_file/Happy.wav,Sad,Happy,I,h,19,1,2,h,1,2.5865154000057373,None,2,1,19,6,59.031281500007026,,,,,,,,59.01966859999811,59.031281500007026,59.50725580001017,59.50725580001017,59.50735956666564,59.54065829998581,61.51396389998263,61.51396389998263,62.10756020000554,h,1,2.5865154000057373,None,P3,001,2025-11-20_10h21.40.014,Final Solo Project Psy310,,2025.1.1,59.963290473273645,2025-11-20 10h21.49.752202 +0530,
Face_file/Sad.jpg,Sound_file/Sad.wav,Sad,Sad,C,s,20,2,2,s,1,2.79517389999819,None,2,2,20,2,62.12489169999026,,,,,,,,62.12290409998968,62.12489169999026,62.607041100010974,62.607041100010974,62.606761066654386,62.64025070000207,64.6090039999981,64.6090039999981,65.4073519000085,s,1,2.79517389999819,None,P3,001,2025-11-20_10h21.40.014,Final Solo Project Psy310,,2025.1.1,59.963290473273645,2025-11-20 10h21.49.752202 +0530,
Face_file/Anger.jpg,Sound_file/Happy.wav,Anger,Happy,I,h,21,3,2,h,1,1.0573118000174873,None,2,3,21,5,65.44580049999058,,,,,,,,65.4430188999977,65.44580049999058,65.9068505000032,65.9068505000032,65.90673366666694,65.9567839000083,,,66.97419010000885,h,1,1.0573118000174873,None,P3,001,2025-11-20_10h21.40.014,Final Solo Project Psy310,,2025.1.1,59.963290473273645,2025-11-20 10h21.49.752202 +0530,
Face_file/Happy.jpg,Sound_file/Sad.wav,Happy,Sad,I,s,22,4,2,s,1,1.408719300001394,None,2,4,22,8,67.12059289999888,,,,,,,,67.11234200000763,67.12059289999888,67.50743440000224,67.50743440000224,67.50655906665294,67.62396100000478,,,68.92450009999448,s,1,1.408719300001394,None,P3,001,2025-11-20_10h21.40.014,Final Solo Project Psy310,,2025.1.1,59.963290473273645,2025-11-20 10h21.49.752202 +0530,
Face_file/Anger.jpg,Sound_file/Sad.wav,Anger,Sad,I,s,23,5,2,s,1,2.3389239000098314,None,2,5,23,7,68.98269679999794,,,,,,,,68.97188009999809,68.98269679999794,69.44010479998542,69.44010479998542,69.43998896665677,69.48999050000566,71.439753499988,71.439753499988,71.79049809998833,s,1,2.3389239000098314,None,P3,001,2025-11-20_10h21.40.014,Final Solo Project Psy310,,2025.1.1,59.963290473273645,2025-11-20 10h21.49.752202 +0530,
Face_file/Sad.jpg,Sound_file/Anger.wav,Sad,Anger,I,a,24,6,2,a,1,1.2560152000223752,None,2,6,24,4,71.91223300001002,,,,,,,,71.90913099999307,71.91223300001002,72.28972699999576,72.28972699999576,72.28964946666771,72.42344620000222,,,73.55712799998582,a,1,1.2560152000223752,None,P3,001,2025-11-20_10h21.40.014,Final Solo Project Psy310,,2025.1.1,59.963290473273645,2025-11-20 10h21.49.752202 +0530,
Face_file/Happy.jpg,Sound_file/Happy.wav,Happy,Happy,C,h,25,7,2,h,1,0.9521066999877803,None,2,7,25,1,73.72836139998981,,,,,,,,73.7204619999975,73.72836139998981,74.09024039999349,74.09024039999349,74.08965316665514,74.24023689999012,,,75.05769620000501,h,1,0.9521066999877803,None,P3,001,2025-11-20_10h21.40.014,Final Solo Project Psy310,,2025.1.1,59.963290473273645,2025-11-20 10h21.49.752202 +0530,
Face_file/Anger.jpg,Sound_file/Anger.wav,Anger,Anger,C,a,26,8,2,h,0,1.1143955000152346,None,2,8,26,0,75.22369720001006,,,,,,,,75.21223549998831,75.22369720001006,75.58987570001045,75.58987570001045,75.58950186666722,75.72303150000516,,,76.70675069998833,h,0,1.1143955000152346,None,P3,001,2025-11-20_10h21.40.014,Final Solo Project Psy310,,2025.1.1,59.963290473273645,2025-11-20 10h21.49.752202 +0530,
Face_file/Sad.jpg,Sound_file/Sad.wav,Sad,Sad,C,s,27,0,3,s,1,1.8675015000044368,None,3,0,27,2,76.74378749998868,,,,,,,,76.74079690000508,76.74378749998868,77.2395630000101,77.2395630000101,77.23942006664971,77.25611399998888,,,79.12333179998677,s,1,1.8675015000044368,None,P3,001,2025-11-20_10h21.40.014,Final Solo Project Psy310,,2025.1.1,59.963290473273645,2025-11-20 10h21.49.752202 +0530,
Face_file/Sad.jpg,Sound_file/Happy.wav,Sad,Happy,I,h,28,1,3,h,1,1.1248988999868743,None,3,1,28,6,79.16536350001115,,,,,,,,79.16344959998969,79.16536350001115,79.6395513000025,79.6395513000025,79.63916996666036,79.67285110001103,,,80.77323719998822,h,1,1.1248988999868743,None,P3,001,2025-11-20_10h21.40.014,Final Solo Project Psy310,,2025.1.1,59.963290473273645,2025-11-20 10h21.49.752202 +0530,
Face_file/Happy.jpg,Sound_file/Anger.wav,Happy,Anger,I,a,29,2,3,a,1,1.626344100019196,None,3,2,29,3,81.0269893000077,,,,,,,,81.01885709998896,81.0269893000077,81.30635619998793,81.30635619998793,81.30555946665505,81.53954900000826,,,82.94031589999213,a,1,1.626344100019196,None,P3,001,2025-11-20_10h21.40.014,Final Solo Project Psy310,,2025.1.1,59.963290473273645,2025-11-20 10h21.49.752202 +0530,
Face_file/Sad.jpg,Sound_file/Anger.wav,Sad,Anger,I,a,30,3,3,a,1,0.9872017000161577,None,3,3,30,4,83.0866948000039,,,,,,,,83.07517799999914,83.0866948000039,83.45585979998577,83.45585979998577,83.45573906664892,83.58910759998253,,,84.45632060000207,a,1,0.9872017000161577,None,P3,001,2025-11-20_10h21.40.014,Final Solo Project Psy310,,2025.1.1,59.963290473273645,2025-11-20 10h21.49.752202 +0530,
Face_file/Happy.jpg,Sound_file/Happy.wav,Happy,Happy,C,h,31,4,3,h,1,1.1453623000124935,None,3,4,31,1,84.61100400000578,,,,,,,,84.60279549998813,84.61100400000578,84.98954770001001,84.98954770001001,84.98898216666227,85.12313259998336,,,86.14038639998762,h,1,1.1453623000124935,None,P3,001,2025-11-20_10h21.40.014,Final Solo Project Psy310,,2025.1.1,59.963290473273645,2025-11-20 10h21.49.752202 +0530,
Face_file/Happy.jpg,Sound_file/Sad.wav,Happy,Sad,I,s,32,5,3,s,1,0.8836548000108451,None,3,5,32,8,86.28289709999808,,,,,,,,86.27484969998477,86.28289709999808,86.67281879999791,86.67281879999791,86.67198476667205,86.78968670000904,,,87.57346389998565,s,1,0.8836548000108451,None,P3,001,2025-11-20_10h21.40.014,Final Solo Project Psy310,,2025.1.1,59.963290473273645,2025-11-20 10h21.49.752202 +0530,
Face_file/Anger.jpg,Sound_file/Happy.wav,Anger,Happy,I,h,33,6,3,h,1,1.2552583999931812,None,3,6,33,5,87.62903730000835,,,,,,,,87.61789439999848,87.62903730000835,88.08886799999163,88.08886799999163,88.08873716666518,88.13882299998659,,,89.35607159999199,h,1,1.2552583999931812,None,P3,001,2025-11-20_10h21.40.014,Final Solo Project Psy310,,2025.1.1,59.963290473273645,2025-11-20 10h21.49.752202 +0530,
Face_file/Anger.jpg,Sound_file/Sad.wav,Anger,Sad,I,s,34,7,3,s,1,1.867556599987438,None,3,7,34,7,89.4034127999912,,,,,,,,89.40123399998993,89.4034127999912,89.8888447000063,89.8888447000063,89.88841376666484,89.90567449998343,,,91.7723335000046,s,1,1.867556599987438,None,P3,001,2025-11-20_10h21.40.014,Final Solo Project Psy310,,2025.1.1,59.963290473273645,2025-11-20 10h21.49.752202 +0530,
Face_file/Anger.jpg,Sound_file/Anger.wav,Anger,Anger,C,a,35,8,3,a,1,1.706090599996969,None,3,8,35,0,91.90892129999702,,,,,,,,91.90687939999043,91.90892129999702,92.2883628999989,92.2883628999989,92.28818076666018,92.42200759999105,,,94.00527140000486,a,1,1.706090599996969,None,P3,001,2025-11-20_10h21.40.014,Final Solo Project Psy310,,2025.1.1,59.963290473273645,2025-11-20 10h21.49.752202 +0530,
Face_file/Anger.jpg,Sound_file/Sad.wav,Anger,Sad,I,s,36,0,4,s,1,1.7727790999924764,None,4,0,36,7,94.04971059999662,,,,,,,,94.04734109999845,94.04971059999662,94.53853819999495,94.53853819999495,94.53801586665601,94.55519600000116,,,96.32201209999039,s,1,1.7727790999924764,None,P3,001,2025-11-20_10h21.40.014,Final Solo Project Psy310,,2025.1.1,59.963290473273645,2025-11-20 10h21.49.752202 +0530,
Face_file/Happy.jpg,Sound_file/Happy.wav,Happy,Happy,C,h,37,1,4,h,1,1.6185212999989744,None,4,1,37,1,96.4725700999843,,,,,,,,96.46399319998454,96.4725700999843,96.85539409998455,96.85539409998455,96.85468226665786,96.97209759999532,,,98.48940429999493,h,1,1.6185212999989744,None,P3,001,2025-11-20_10h21.40.014,Final Solo Project Psy310,,2025.1.1,59.963290473273645,2025-11-20 10h21.49.752202 +0530,
Face_file/Anger.jpg,Sound_file/Anger.wav,Anger,Anger,C,a,38,2,4,a,1,1.7301207999989856,None,4,2,38,0,98.65167019999353,,,,,,,,98.63977889998932,98.65167019999353,99.0215588999854,99.0215588999854,99.02135136665699,99.15468350000447,,,100.75542669999413,a,1,1.7301207999989856,None,P3,001,2025-11-20_10h21.40.014,Final Solo Project Psy310,,2025.1.1,59.963290473273645,2025-11-20 10h21.49.752202 +0530,
Face_file/Sad.jpg,Sound_file/Happy.wav,Sad,Happy,I,h,39,3,4,h,1,2.341918899997836,None,4,3,39,6,100.8044693999982,,,,,,,,100.80157079998753,100.8044693999982,101.2879593000107,101.2879593000107,101.28753566666661,101.30448920000345,103.29673259999254,103.29673259999254,103.63844529999187,h,1,2.341918899997836,None,P3,001,2025-11-20_10h21.40.014,Final Solo Project Psy310,,2025.1.1,59.963290473273645,2025-11-20 10h21.49.752202 +0530,
Face_file/Happy.jpg,Sound_file/Anger.wav,Happy,Anger,I,a,40,4,4,a,1,1.6744194999919273,None,4,4,40,3,103.865074500005,,,,,,,,103.85589420000906,103.865074500005,104.13847259999602,104.13847259999602,104.13774336665325,104.37185739999404,,,105.82225530000869,a,1,1.6744194999919273,None,P3,001,2025-11-20_10h21.40.014,Final Solo Project Psy310,,2025.1.1,59.963290473273645,2025-11-20 10h21.49.752202 +0530,
Face_file/Sad.jpg,Sound_file/Sad.wav,Sad,Sad,C,s,41,5,4,s,1,0.9300698000006378,None,4,5,41,2,105.86846930001047,,,,,,,,105.85789210000075,105.86846930001047,106.35444679998909,106.35444679998909,106.35443876666638,106.37121670000488,,,107.28846049998538,s,1,0.9300698000006378,None,P3,001,2025-11-20_10h21.40.014,Final Solo Project Psy310,,2025.1.1,59.963290473273645,2025-11-20 10h21.49.752202 +0530,
Face_file/Sad.jpg,Sound_file/Anger.wav,Sad,Anger,I,a,42,6,4,a,1,1.2299092000175733,None,4,6,42,4,107.41671819999465,,,,,,,,107.41443989999243,107.41671819999465,107.82100309999078,107.82100309999078,107.82091716665697,107.92105289999745,,,109.05427699998836,a,1,1.2299092000175733,None,P3,001,2025-11-20_10h21.40.014,Final Solo Project Psy310,,2025.1.1,59.963290473273645,2025-11-20 10h21.49.752202 +0530,
Face_file/Happy.jpg,Sound_file/Sad.wav,Happy,Sad,I,s,43,7,4,s,1,1.0716953999944963,None,4,7,43,8,109.23934959998587,,,,,,,,109.23142219998408,109.23934959998587,109.57137799999327,109.57137799999327,109.57088196665087,109.75477639999008,,,110.65519540000241,s,1,1.0716953999944963,None,P3,001,2025-11-20_10h21.40.014,Final Solo Project Psy310,,2025.1.1,59.963290473273645,2025-11-20 10h21.49.752202 +0530,
Face_file/Anger.jpg,Sound_file/Happy.wav,Anger,Happy,I,h,44,8,4,h,1,0.9473376999958418,None,4,8,44,5,110.72409489998245,,,,,,,,110.71252430000459,110.72409489998245,111.187337499985,111.187337499985,111.18728826666872,111.23716910000076,,,112.13781580000068,h,1,0.9473376999958418,None,P3,001,2025-11-20_10h21.40.014,Final Solo Project Psy310,,2025.1.1,59.963290473273645,2025-11-20 10h21.49.752202 +0530,
Face_file/Sad.jpg,Sound_file/Anger.wav,Sad,Anger,I,a,45,0,5,a,1,0.982299299997976,None,5,0,45,4,112.28492559998995,,,,,,,,112.28197109999019,112.28492559998995,112.65386900000158,112.65386900000158,112.65395376665789,112.78713089998928,,,113.63724449998699,a,1,0.982299299997976,None,P3,001,2025-11-20_10h21.40.014,Final Solo Project Psy310,,2025.1.1,59.963290473273645,2025-11-20 10h21.49.752202 +0530,
Face_file/Anger.jpg,Sound_file/Happy.wav,Anger,Happy,I,h,46,1,5,h,1,1.525402800005395,None,5,1,46,5,113.69131580000976,,,,,,,,113.68875319999643,113.69131580000976,114.15358839998953,114.15358839998953,114.15353536667341,114.20359910000116,,,115.6879162999976,h,1,1.525402800005395,None,P3,001,2025-11-20_10h21.40.014,Final Solo Project Psy310,,2025.1.1,59.963290473273645,2025-11-20 10h21.49.752202 +0530,
Face_file/Sad.jpg,Sound_file/Sad.wav,Sad,Sad,C,s,47,2,5,s,1,2.587208199984161,None,5,2,47,2,115.72100699998555,,,,,,,,115.71801049998612,115.72100699998555,116.22047689999454,116.22047689999454,116.22002776666001,116.22047689999454,118.22615020000376,118.22615020000376,118.82080180000048,s,1,2.587208199984161,None,P3,001,2025-11-20_10h21.40.014,Final Solo Project Psy310,,2025.1.1,59.963290473273645,2025-11-20 10h21.49.752202 +0530,
Face_file/Happy.jpg,Sound_file/Happy.wav,Happy,Happy,C,h,48,3,5,h,1,2.2098067000042647,None,5,3,48,1,118.96369390000473,,,,,,,,118.95556719999877,118.96369390000473,119.32095369999297,119.32095369999297,119.32005076666634,119.47097910000593,121.32483040000079,121.32483040000079,121.53705149999587,h,1,2.2098067000042647,None,P3,001,2025-11-20_10h21.40.014,Final Solo Project Psy310,,2025.1.1,59.963290473273645,2025-11-20 10h21.49.752202 +0530,
Face_file/Anger.jpg,Sound_file/Sad.wav,Anger,Sad,I,s,49,4,5,s,1,1.3768631000129972,None,5,4,49,7,121.57656929999939,,,,,,,,121.56524540000828,121.57656929999939,122.0366703000036,122.0366703000036,122.03669686665332,122.0867273999902,,,123.42065479999292,s,1,1.3768631000129972,None,P3,001,2025-11-20_10h21.40.014,Final Solo Project Psy310,,2025.1.1,59.963290473273645,2025-11-20 10h21.49.752202 +0530,
Face_file/Sad.jpg,Sound_file/Happy.wav,Sad,Happy,I,h,50,5,5,h,1,2.4528668000129983,None,5,5,50,6,123.47393469998497,,,,,,,,123.47088030001032,123.47393469998497,123.95333160000155,123.95333160000155,123.95304406667516,123.986754499987,125.95705420000013,125.95705420000013,126.42067659998429,h,1,2.4528668000129983,None,P3,001,2025-11-20_10h21.40.014,Final Solo Project Psy310,,2025.1.1,59.963290473273645,2025-11-20 10h21.49.752202 +0530,
Face_file/Happy.jpg,Sound_file/Sad.wav,Happy,Sad,I,s,51,6,5,s,1,2.557830300007481,None,5,6,51,8,126.54988219999359,,,,,,,,126.54151010001078,126.54988219999359,126.93696669998462,126.93696669998462,126.93623446667722,127.05373819998931,128.94141070000478,128.94141070000478,129.50293379998766,s,1,2.557830300007481,None,P3,001,2025-11-20_10h21.40.014,Final Solo Project Psy310,,2025.1.1,59.963290473273645,2025-11-20 10h21.49.752202 +0530,
Face_file/Anger.jpg,Sound_file/Anger.wav,Anger,Anger,C,a,52,7,5,a,1,2.760421899991343,None,5,7,52,0,129.65411400000448,,,,,,,,129.64168719999725,129.65411400000448,130.0028495999868,130.0028495999868,130.0025781666666,130.16950990000623,132.0026164999872,132.0026164999872,132.769223100011,a,1,2.760421899991343,None,P3,001,2025-11-20_10h21.40.014,Final Solo Project Psy310,,2025.1.1,59.963290473273645,2025-11-20 10h21.49.752202 +0530,
Face_file/Happy.jpg,Sound_file/Anger.wav,Happy,Anger,I,a,53,8,5,a,1,1.3165472999971826,None,5,8,53,3,133.0278069000051,,,,,,,,133.0189051000052,133.0278069000051,133.26957840000978,133.26957840000978,133.26907076666637,133.53611829999136,,,134.58764340000926,a,1,1.3165472999971826,None,P3,001,2025-11-20_10h21.40.014,Final Solo Project Psy310,,2025.1.1,59.963290473273645,2025-11-20 10h21.49.752202 +0530,
Face_file/Anger.jpg,Sound_file/Happy.wav,Anger,Happy,I,h,54,0,6,h,1,1.013420999981463,None,6,0,54,5,134.65015939998557,,,,,,,,134.63951619999716,134.65015939998557,135.11927480000304,135.11927480000304,135.1193162666498,135.152838399983,,,136.13655799999833,h,1,1.013420999981463,None,P3,001,2025-11-20_10h21.40.014,Final Solo Project Psy310,,2025.1.1,59.963290473273645,2025-11-20 10h21.49.752202 +0530,
Face_file/Happy.jpg,Sound_file/Happy.wav,Happy,Happy,C,h,55,1,6,h,1,1.651931299973512,None,6,1,55,1,136.27848149999045,,,,,,,,136.27009309999994,136.27848149999045,136.65309579999303,136.65309579999303,136.65212916667613,136.78646709999884,,,138.32017829999677,h,1,1.651931299973512,None,P3,001,2025-11-20_10h21.40.014,Final Solo Project Psy310,,2025.1.1,59.963290473273645,2025-11-20 10h21.49.752202 +0530,
Face_file/Happy.jpg,Sound_file/Sad.wav,Happy,Sad,I,s,56,2,6,s,1,1.157391099986853,None,6,2,56,8,138.45744219998596,,,,,,,,138.4490242000029,138.45744219998596,138.8362008999975,138.8362008999975,138.83561036666313,138.96959230001085,,,140.00379699998302,s,1,1.157391099986853,None,P3,001,2025-11-20_10h21.40.014,Final Solo Project Psy310,,2025.1.1,59.963290473273645,2025-11-20 10h21.49.752202 +0530,
Face_file/Anger.jpg,Sound_file/Anger.wav,Anger,Anger,C,a,57,3,6,a,1,1.0938491999986582,None,6,3,57,0,140.154100499989,,,,,,,,140.14311179998913,140.154100499989,140.53577749998658,140.53577749998658,140.53522076667676,140.66888680000557,,,141.6360704000108,a,1,1.0938491999986582,None,P3,001,2025-11-20_10h21.40.014,Final Solo Project Psy310,,2025.1.1,59.963290473273645,2025-11-20 10h21.49.752202 +0530,
Face_file/Sad.jpg,Sound_file/Anger.wav,Sad,Anger,I,a,58,4,6,a,1,1.2545356999908108,None,6,4,58,4,141.7644896999991,,,,,,,,141.76143839998986,141.7644896999991,142.1521734999842,142.1521734999842,142.15175916665274,142.26880049999454,,,143.4195294000092,a,1,1.2545356999908108,None,P3,001,2025-11-20_10h21.40.014,Final Solo Project Psy310,,2025.1.1,59.963290473273645,2025-11-20 10h21.49.752202 +0530,
Face_file/Anger.jpg,Sound_file/Sad.wav,Anger,Sad,I,s,59,5,6,s,1,1.1016655999992508,None,6,5,59,7,143.46272869998938,,,,,,,,143.45991720000166,143.46272869998938,143.95207719999598,143.95207719999598,143.95179596665938,143.96894319998682,,,145.06951370000024,s,1,1.1016655999992508,None,P3,001,2025-11-20_10h21.40.014,Final Solo Project Psy310,,2025.1.1,59.963290473273645,2025-11-20 10h21.49.752202 +0530,
Face_file/Sad.jpg,Sound_file/Sad.wav,Sad,Sad,C,s,60,6,6,s,1,1.8436869999859482,None,6,6,60,2,145.1048989999981,,,,,,,,145.1019365999964,145.1048989999981,145.60187439998845,145.60187439998845,145.60185696665238,145.61873899999773,,,147.45230810000794,s,1,1.8436869999859482,None,P3,001,2025-11-20_10h21.40.014,Final Solo Project Psy310,,2025.1.1,59.963290473273645,2025-11-20 10h21.49.752202 +0530,
Face_file/Happy.jpg,Sound_file/Anger.wav,Happy,Anger,I,a,61,7,6,a,1,1.2492983999836724,None,6,7,61,3,147.70260650001,,,,,,,,147.69465849999688,147.70260650001,147.9688679999963,147.9688679999963,147.9680974666592,148.20218210000894,,,149.21992080000928,a,1,1.2492983999836724,None,P3,001,2025-11-20_10h21.40.014,Final Solo Project Psy310,,2025.1.1,59.963290473273645,2025-11-20 10h21.49.752202 +0530,
Face_file/Sad.jpg,Sound_file/Happy.wav,Sad,Happy,I,h,62,8,6,h,1,1.3845602999790572,None,6,8,62,6,149.26889020000817,,,,,,,,149.25822530000005,149.26889020000817,149.73501730000135,149.73501730000135,149.7350691666691,149.76844429998891,,,151.13578179999604,h,1,1.3845602999790572,None,P3,001,2025-11-20_10h21.40.014,Final Solo Project Psy310,,2025.1.1,59.963290473273645,2025-11-20 10h21.49.752202 +0530,
Face_file/Anger.jpg,Sound_file/Anger.wav,Anger,Anger,C,a,63,0,7,a,1,2.1492793999786954,None,7,0,63,0,151.28964430000633,,,,,,,,151.28703959999257,151.28964430000633,151.66830540000228,151.66830540000228,151.66832856665522,151.80163679999532,153.67558499998995,153.67558499998995,153.81830389998504,a,1,2.1492793999786954,None,P3,001,2025-11-20_10h21.40.014,Final Solo Project Psy310,,2025.1.1,59.963290473273645,2025-11-20 10h21.49.752202 +0530,
Face_file/Anger.jpg,Sound_file/Sad.wav,Anger,Sad,I,s,64,1,7,s,1,1.8625511999998707,None,7,1,64,7,153.84479999999166,,,,,,,,153.84258619998582,153.84479999999166,154.31824550000601,154.31824550000601,154.31774556666304,154.35143609999795,,,156.18506699998397,s,1,1.8625511999998707,None,P3,001,2025-11-20_10h21.40.014,Final Solo Project Psy310,,2025.1.1,59.963290473273645,2025-11-20 10h21.49.752202 +0530,
Face_file/Anger.jpg,Sound_file/Happy.wav,Anger,Happy,I,h,65,2,7,h,1,1.4840650999976788,None,7,2,65,5,156.24155639999663,,,,,,,,156.23909230000572,156.24155639999663,156.71815199998673,156.71815199998673,156.71765566667116,156.75120530001004,,,158.21819849999156,h,1,1.4840650999976788,None,P3,001,2025-11-20_10h21.40.014,Final Solo Project Psy310,,2025.1.1,59.963290473273645,2025-11-20 10h21.49.752202 +0530,
Face_file/Sad.jpg,Sound_file/Happy.wav,Sad,Happy,I,h,66,3,7,h,1,1.584536600013962,None,7,3,66,6,158.26601630001096,,,,,,,,158.2629054999852,158.26601630001096,158.7347291999904,158.7347291999904,158.73428876666392,158.76800149999326,,,160.3348919999844,h,1,1.584536600013962,None,P3,001,2025-11-20_10h21.40.014,Final Solo Project Psy310,,2025.1.1,59.963290473273645,2025-11-20 10h21.49.752202 +0530,
Face_file/Sad.jpg,Sound_file/Sad.wav,Sad,Sad,C,s,67,4,7,s,1,2.8824276000086684,None,7,4,67,2,160.36357119999593,,,,,,,,160.36160820000805,160.36357119999593,160.85108510000282,160.85108510000282,160.85110416665364,160.86789920000592,162.85588210000424,162.85588210000424,163.7345790999825,s,1,2.8824276000086684,None,P3,001,2025-11-20_10h21.40.014,Final Solo Project Psy310,,2025.1.1,59.963290473273645,2025-11-20 10h21.49.752202 +0530,
Face_file/Happy.jpg,Sound_file/Anger.wav,Happy,Anger,I,a,68,5,7,a,1,1.591038300015498,None,7,5,68,3,163.96166800000356,,,,,,,,163.9523343000037,163.96166800000356,164.23471349998727,164.23471349998727,164.23410286667448,164.46814009998343,,,165.8352823999885,a,1,1.591038300015498,None,P3,001,2025-11-20_10h21.40.014,Final Solo Project Psy310,,2025.1.1,59.963290473273645,2025-11-20 10h21.49.752202 +0530,
Face_file/Happy.jpg,Sound_file/Happy.wav,Happy,Happy,C,h,69,6,7,h,1,1.8165637999773026,None,7,6,69,1,165.98033590000705,,,,,,,,165.97231379998266,165.98033590000705,166.35139170000912,166.35139170000912,166.35048996666254,166.4845137000084,,,168.18495530000655,h,1,1.8165637999773026,None,P3,001,2025-11-20_10h21.40.014,Final Solo Project Psy310,,2025.1.1,59.963290473273645,2025-11-20 10h21.49.752202 +0530,
Face_file/Sad.jpg,Sound_file/Anger.wav,Sad,Anger,I,a,70,7,7,a,1,1.88820840002154,None,7,7,70,4,168.34043099998962,,,,,,,,168.32909819998895,168.34043099998962,168.71737179998308,168.71737179998308,168.71700156666728,168.85061510000378,,,170.61772400001064,a,1,1.88820840002154,None,P3,001,2025-11-20_10h21.40.014,Final Solo Project Psy310,,2025.1.1,59.963290473273645,2025-11-20 10h21.49.752202 +0530,
Face_file/Happy.jpg,Sound_file/Sad.wav,Happy,Sad,I,s,71,8,7,s,1,1.8469588000152726,None,7,8,71,8,170.76993519999087,,,,,,,,170.76170000000275,170.76993519999087,171.15128980000736,171.15128980000736,171.1505132666537,171.28443919998244,,,173.0016389999946,s,1,1.8469588000152726,None,P3,001,2025-11-20_10h21.40.014,Final Solo Project Psy310,,2025.1.1,59.963290473273645,2025-11-20 10h21.49.752202 +0530,
Face_file/Happy.jpg,Sound_file/Sad.wav,Happy,Sad,I,s,72,0,8,s,1,0.8473660000017844,None,8,0,72,8,173.12783569999738,,,,,,,,173.11992619998637,173.12783569999738,173.5174485000025,173.5174485000025,173.51677126667735,173.63424079999095,,,174.36791850000736,s,1,0.8473660000017844,None,P3,001,2025-11-20_10h21.40.014,Final Solo Project Psy310,,2025.1.1,59.963290473273645,2025-11-20 10h21.49.752202 +0530,
Face_file/Anger.jpg,Sound_file/Anger.wav,Anger,Anger,C,a,73,1,8,a,1,0.9665664999920409,None,8,1,73,0,174.51358219998656,,,,,,,,174.50263480001013,174.51358219998656,174.89997229998698,174.89997229998698,174.90011216665542,175.0169445000065,,,175.86741710000206,a,1,0.9665664999920409,None,P3,001,2025-11-20_10h21.40.014,Final Solo Project Psy310,,2025.1.1,59.963290473273645,2025-11-20 10h21.49.752202 +0530,
Face_file/Happy.jpg,Sound_file/Happy.wav,Happy,Happy,C,h,74,2,8,h,1,1.2282433999935165,None,8,2,74,1,176.00593809998827,,,,,,,,175.99718909998774,176.00593809998827,176.4004941000021,176.4004941000021,176.4001235666549,176.51723589998437,,,177.63448239999707,h,1,1.2282433999935165,None,P3,001,2025-11-20_10h21.40.014,Final Solo Project Psy310,,2025.1.1,59.963290473273645,2025-11-20 10h21.49.752202 +0530,
Face_file/Sad.jpg,Sound_file/Sad.wav,Sad,Sad,C,s,75,3,8,s,1,0.9761252999887802,None,8,3,75,2,177.673183899984,,,,,,,,177.66179019998526,177.673183899984,178.1499932000006,178.1499932000006,178.14988216665031,178.18337889999384,,,179.13403849999304,s,1,0.9761252999887802,None,P3,001,2025-11-20_10h21.40.014,Final Solo Project Psy310,,2025.1.1,59.963290473273645,2025-11-20 10h21.49.752202 +0530,
Face_file/Anger.jpg,Sound_file/Happy.wav,Anger,Happy,I,h,76,4,8,h,1,1.4223550999886356,None,8,4,76,5,179.18733399998746,,,,,,,,179.18452459998662,179.18733399998746,179.65008940000553,179.65008940000553,179.64984456665505,179.6998961000063,,,181.083102900011,h,1,1.4223550999886356,None,P3,001,2025-11-20_10h21.40.014,Final Solo Project Psy310,,2025.1.1,59.963290473273645,2025-11-20 10h21.49.752202 +0530,
Face_file/Happy.jpg,Sound_file/Anger.wav,Happy,Anger,I,a,77,5,8,a,1,0.9722968999994919,None,8,5,77,3,181.3079466999916,,,,,,,,181.29825180000626,181.3079466999916,181.61688909999793,181.61688909999793,181.61612586665822,181.81687539999257,,,182.60070119999,a,1,0.9722968999994919,None,P3,001,2025-11-20_10h21.40.014,Final Solo Project Psy310,,2025.1.1,59.963290473273645,2025-11-20 10h21.49.752202 +0530,
Face_file/Sad.jpg,Sound_file/Happy.wav,Sad,Happy,I,h,78,6,8,h,1,1.1645409000047948,None,8,6,78,6,182.6500296999875,,,,,,,,182.63901980000082,182.6500296999875,183.11637030000566,183.11637030000566,183.11638066667754,183.1498273999896,,,184.2835086999985,h,1,1.1645409000047948,None,P3,001,2025-11-20_10h21.40.014,Final Solo Project Psy310,,2025.1.1,59.963290473273645,2025-11-20 10h21.49.752202 +0530,
Face_file/Sad.jpg,Sound_file/Anger.wav,Sad,Anger,I,a,79,7,8,a,1,1.2785060000023805,None,8,7,79,4,184.41013559998828,,,,,,,,184.40795069999876,184.41013559998828,184.79942649998702,184.79942649998702,184.79941446666297,184.91648300000816,,,186.08338530000765,a,1,1.2785060000023805,None,P3,001,2025-11-20_10h21.40.014,Final Solo Project Psy310,,2025.1.1,59.963290473273645,2025-11-20 10h21.49.752202 +0530,
Face_file/Anger.jpg,Sound_file/Sad.wav,Anger,Sad,I,s,80,8,8,s,1,1.6453327999915928,None,8,8,80,7,186.11887499998556,,,,,,,,186.11608929999056,186.11887499998556,186.59932179999305,186.59932179999305,186.59945396666106,186.6325855999894,,,188.2499695000006,s,1,1.6453327999915928,None,P3,001,2025-11-20_10h21.40.014,Final Solo Project Psy310,,2025.1.1,59.963290473273645,2025-11-20 10h21.49.752202 +0530,
Face_file/Anger.jpg,Sound_file/Sad.wav,Anger,Sad,I,s,81,0,9,s,1,0.7978157000034116,None,9,0,81,7,188.2913583999907,,,,,,,,188.2887219999975,188.2913583999907,188.78266609998536,188.78266609998536,188.78255646667483,188.79931639999268,,,189.58249709999654,s,1,0.7978157000034116,None,P3,001,2025-11-20_10h21.40.014,Final Solo Project Psy310,,2025.1.1,59.963290473273645,2025-11-20 10h21.49.752202 +0530,
Face_file/Happy.jpg,Sound_file/Sad.wav,Happy,Sad,I,s,82,1,9,s,1,0.8210691999993287,None,9,1,82,8,189.74857560000964,,,,,,,,189.73855099998764,189.74857560000964,190.11598529998446,190.11598529998446,190.1153047666633,190.24948709999444,,,190.94971570000052,s,1,0.8210691999993287,None,P3,001,2025-11-20_10h21.40.014,Final Solo Project Psy310,,2025.1.1,59.963290473273645,2025-11-20 10h21.49.752202 +0530,
Face_file/Anger.jpg,Sound_file/Happy.wav,Anger,Happy,I,h,83,2,9,h,1,0.7862721999990754,None,9,2,83,5,191.03054479998536,,,,,,,,191.01943280000705,191.03054479998536,191.482107799995,191.482107799995,191.48173836665617,191.5320434999885,,,192.28236909999396,h,1,0.7862721999990754,None,P3,001,2025-11-20_10h21.40.014,Final Solo Project Psy310,,2025.1.1,59.963290473273645,2025-11-20 10h21.49.752202 +0530,
Face_file/Sad.jpg,Sound_file/Sad.wav,Sad,Sad,C,s,84,3,9,s,1,0.8164509999915026,None,9,3,84,2,192.31607880000956,,,,,,,,192.3132464000082,192.31607880000956,192.79861150000943,192.79861150000943,192.79839946667587,192.81510059998254,,,193.61550519999582,s,1,0.8164509999915026,None,P3,001,2025-11-20_10h21.40.014,Final Solo Project Psy310,,2025.1.1,59.963290473273645,2025-11-20 10h21.49.752202 +0530,
Face_file/Happy.jpg,Sound_file/Anger.wav,Happy,Anger,I,a,85,4,9,a,1,1.3762350999750197,None,9,4,85,3,194.14570490000187,,,,,,,,194.13320069998736,194.14570490000187,194.14570490000187,194.14570490000187,194.14851163334293,194.64891839999473,,,195.53301819998887,a,1,1.3762350999750197,None,P3,001,2025-11-20_10h21.40.014,Final Solo Project Psy310,,2025.1.1,59.963290473273645,2025-11-20 10h21.49.752202 +0530,
Face_file/Sad.jpg,Sound_file/Happy.wav,Sad,Happy,I,h,86,5,9,h,1,1.238875899987761,None,9,5,86,6,195.6034338999889,,,,,,,,195.59090390001074,195.6034338999889,196.06521629999042,196.06521629999042,196.064971066666,196.1151559999853,,,197.31558729999233,h,1,1.238875899987761,None,P3,001,2025-11-20_10h21.40.014,Final Solo Project Psy310,,2025.1.1,59.963290473273645,2025-11-20 10h21.49.752202 +0530,
Face_file/Anger.jpg,Sound_file/Anger.wav,Anger,Anger,C,a,87,6,9,h,0,1.00932979999925,None,9,6,87,0,197.48255009998684,,,,,,,,197.4793512999895,197.48255009998684,197.8317556999973,197.8317556999973,197.83161276666604,197.98198700000648,,,198.8488238999853,h,0,1.00932979999925,None,P3,001,2025-11-20_10h21.40.014,Final Solo Project Psy310,,2025.1.1,59.963290473273645,2025-11-20 10h21.49.752202 +0530,
Face_file/Sad.jpg,Sound_file/Anger.wav,Sad,Anger,I,a,88,7,9,s,0,1.1234107000054792,None,9,7,88,4,199.01196030000574,,,,,,,,199.00865599999088,199.01196030000574,199.364914100006,199.364914100006,199.36492526665486,199.51532139998744,,,200.49920120000024,s,0,1.1234107000054792,None,P3,001,2025-11-20_10h21.40.014,Final Solo Project Psy310,,2025.1.1,59.963290473273645,2025-11-20 10h21.49.752202 +0530,
Face_file/Happy.jpg,Sound_file/Happy.wav,Happy,Happy,C,h,89,8,9,s,0,0.8468071999959648,None,9,8,89,1,200.65655569999944,,,,,,,,200.6481591000047,200.65655569999944,201.03219369999715,201.03219369999715,201.03136936665786,201.16532339999685,,,201.88270889999694,s,0,0.8468071999959648,None,P3,001,2025-11-20_10h21.40.014,Final Solo Project Psy310,,2025.1.1,59.963290473273645,2025-11-20 10h21.49.752202 +0530,
Face_file/Anger.jpg,Sound_file/Happy.wav,Anger,Happy,I,h,90,0,10,h,1,1.4713345000054687,None,10,0,90,5,201.94909409998218,,,,,,,,201.93707169999834,201.94909409998218,202.41506339999614,202.41506339999614,202.41491816667647,202.44828929999494,,,203.89895139998407,h,1,1.4713345000054687,None,P3,001,2025-11-20_10h21.40.014,Final Solo Project Psy310,,2025.1.1,59.963290473273645,2025-11-20 10h21.49.752202 +0530,
Face_file/Sad.jpg,Sound_file/Anger.wav,Sad,Anger,I,a,91,1,10,a,1,1.2067945000017062,None,10,1,91,4,204.05512850001105,,,,,,,,204.0517600000021,204.05512850001105,204.4316331000009,204.4316331000009,204.43158896666526,204.5647941000061,,,205.6486162999936,a,1,1.2067945000017062,None,P3,001,2025-11-20_10h21.40.014,Final Solo Project Psy310,,2025.1.1,59.963290473273645,2025-11-20 10h21.49.752202 +0530,
Face_file/Sad.jpg,Sound_file/Happy.wav,Sad,Happy,I,h,92,2,10,h,1,1.099361400003545,None,10,2,92,6,205.69882170000346,,,,,,,,205.69661270000506,205.69882170000346,206.18130599998403,206.18130599998403,206.18092766666476,206.1980198000092,,,207.28198490000796,h,1,1.099361400003545,None,P3,001,2025-11-20_10h21.40.014,Final Solo Project Psy310,,2025.1.1,59.963290473273645,2025-11-20 10h21.49.752202 +0530,
Face_file/Anger.jpg,Sound_file/Anger.wav,Anger,Anger,C,a,93,3,10,a,1,1.0375215999956708,None,10,3,93,0,207.45018389998586,,,,,,,,207.44732109998586,207.45018389998586,207.8146177000017,207.8146177000017,207.814181466649,207.9643902000098,,,208.8652591999853,a,1,1.0375215999956708,None,P3,001,2025-11-20_10h21.40.014,Final Solo Project Psy310,,2025.1.1,59.963290473273645,2025-11-20 10h21.49.752202 +0530,
Face_file/Happy.jpg,Sound_file/Sad.wav,Happy,Sad,I,s,94,4,10,s,1,0.8800521000230219,None,10,4,94,8,209.0284748999984,,,,,,,,209.0194833999849,209.0284748999984,209.3985185000056,209.3985185000056,209.39774676665937,209.53179649999947,,,210.2820228000055,s,1,0.8800521000230219,None,P3,001,2025-11-20_10h21.40.014,Final Solo Project Psy310,,2025.1.1,59.963290473273645,2025-11-20 10h21.49.752202 +0530,
Face_file/Anger.jpg,Sound_file/Sad.wav,Anger,Sad,I,s,95,5,10,s,1,0.8899783999950159,None,10,5,95,7,210.34258639998734,,,,,,,,210.3319085999974,210.34258639998734,210.8154675999831,210.8154675999831,210.8141783666545,210.8477726999845,,,211.71520720000262,s,1,0.8899783999950159,None,P3,001,2025-11-20_10h21.40.014,Final Solo Project Psy310,,2025.1.1,59.963290473273645,2025-11-20 10h21.49.752202 +0530,
Face_file/Sad.jpg,Sound_file/Sad.wav,Sad,Sad,C,s,96,6,10,s,1,0.6406295000051614,None,10,6,96,2,211.75299280000036,,,,,,,,211.75013100000797,211.75299280000036,212.23070899999584,212.23070899999584,212.23066126666188,212.2644994999864,,,212.88102999998955,s,1,0.6406295000051614,None,P3,001,2025-11-20_10h21.40.014,Final Solo Project Psy310,,2025.1.1,59.963290473273645,2025-11-20 10h21.49.752202 +0530,
Face_file/Happy.jpg,Sound_file/Happy.wav,Happy,Happy,C,h,97,7,10,h,1,1.0356318000121973,None,10,7,97,1,213.08870079999906,,,,,,,,213.07834740000544,213.08870079999906,213.39799749999656,213.39799749999656,213.39728986667276,213.59822819998953,,,214.4487928999879,h,1,1.0356318000121973,None,P3,001,2025-11-20_10h21.40.014,Final Solo Project Psy310,,2025.1.1,59.963290473273645,2025-11-20 10h21.49.752202 +0530,
Face_file/Happy.jpg,Sound_file/Anger.wav,Happy,Anger,I,a,98,8,10,a,1,1.0057590999931563,None,10,8,98,3,214.70963189998292,,,,,,,,214.70159909999347,214.70963189998292,214.96471110000857,214.96471110000857,214.96392586667596,215.2148962999927,,,215.98202049999963,a,1,1.0057590999931563,None,P3,001,2025-11-20_10h21.40.014,Final Solo Project Psy310,,2025.1.1,59.963290473273645,2025-11-20 10h21.49.752202 +0530,
Face_file/Sad.jpg,Sound_file/Sad.wav,Sad,Sad,C,s,99,0,11,s,1,1.3937311000190675,None,11,0,99,2,216.0290984000021,,,,,,,,216.0185563999985,216.0290984000021,216.51391750000766,216.51391750000766,216.51361556665896,216.53045479999855,,,217.9147656999994,s,1,1.3937311000190675,None,P3,001,2025-11-20_10h21.40.014,Final Solo Project Psy310,,2025.1.1,59.963290473273645,2025-11-20 10h21.49.752202 +0530,
Face_file/Happy.jpg,Sound_file/Happy.wav,Happy,Happy,C,h,100,1,11,h,1,0.9682678999961354,None,11,1,100,1,218.06728270000895,,,,,,,,218.05893739999738,218.06728270000895,218.43119309999747,218.43119309999747,218.43066016666515,218.58122469999944,,,219.41523469999083,h,1,0.9682678999961354,None,P3,001,2025-11-20_10h21.40.014,Final Solo Project Psy310,,2025.1.1,59.963290473273645,2025-11-20 10h21.49.752202 +0530,
Face_file/Anger.jpg,Sound_file/Happy.wav,Anger,Happy,I,h,101,2,11,h,1,0.8687343999918085,None,11,2,101,5,219.47613850000198,,,,,,,,219.46545859999605,219.47613850000198,219.94697580000502,219.94697580000502,219.9468428666626,219.98036379998666,,,220.8308803999971,h,1,0.8687343999918085,None,P3,001,2025-11-20_10h21.40.014,Final Solo Project Psy310,,2025.1.1,59.963290473273645,2025-11-20 10h21.49.752202 +0530,
Face_file/Happy.jpg,Sound_file/Sad.wav,Happy,Sad,I,s,102,3,11,s,1,0.8383389999798965,None,11,3,102,8,220.98891939999885,,,,,,,,220.97945459999028,220.98891939999885,221.36445729999105,221.36445729999105,221.36369836665497,221.49764129999676,,,222.21508890000405,s,1,0.8383389999798965,None,P3,001,2025-11-20_10h21.40.014,Final Solo Project Psy310,,2025.1.1,59.963290473273645,2025-11-20 10h21.49.752202 +0530,
Face_file/Anger.jpg,Sound_file/Anger.wav,Anger,Anger,C,a,103,4,11,a,1,1.0687350000080187,None,11,4,103,0,222.37322239999776,,,,,,,,222.36137639998924,222.37322239999776,222.7305833999999,222.7305833999999,222.73043986666406,222.88039440001012,,,223.81427629999234,a,1,1.0687350000080187,None,P3,001,2025-11-20_10h21.40.014,Final Solo Project Psy310,,2025.1.1,59.963290473273645,2025-11-20 10h21.49.752202 +0530,
Face_file/Happy.jpg,Sound_file/Anger.wav,Happy,Anger,I,a,104,5,11,a,1,1.1254330000083428,None,11,5,104,3,224.05454939999618,,,,,,,,224.04483900000923,224.05454939999618,224.33070789999329,224.33070789999329,224.33004096665925,224.56434129999252,,,225.46480099999462,a,1,1.1254330000083428,None,P3,001,2025-11-20_10h21.40.014,Final Solo Project Psy310,,2025.1.1,59.963290473273645,2025-11-20 10h21.49.752202 +0530,
Face_file/Anger.jpg,Sound_file/Sad.wav,Anger,Sad,I,s,105,6,11,s,1,1.9271019999869168,None,11,6,105,7,225.51304590000655,,,,,,,,225.50139689998468,225.51304590000655,225.99688369999058,225.99688369999058,225.99683336666592,226.01370119999046,,,227.93041490000905,s,1,1.9271019999869168,None,P3,001,2025-11-20_10h21.40.014,Final Solo Project Psy310,,2025.1.1,59.963290473273645,2025-11-20 10h21.49.752202 +0530,
Face_file/Sad.jpg,Sound_file/Happy.wav,Sad,Happy,I,h,106,7,11,h,1,1.4479147999954876,None,11,7,106,6,227.97824199998286,,,,,,,,227.97527359999367,227.97824199998286,228.46356259999448,228.46356259999448,228.46337396666448,228.48021629999857,,,229.91394769999897,h,1,1.4479147999954876,None,P3,001,2025-11-20_10h21.40.014,Final Solo Project Psy310,,2025.1.1,59.963290473273645,2025-11-20 10h21.49.752202 +0530,
Face_file/Sad.jpg,Sound_file/Anger.wav,Sad,Anger,I,a,107,8,11,s,0,1.8825160000124015,None,11,8,107,4,230.05520639999304,,,,,,,,230.05303519999143,230.05520639999304,230.44658369998797,230.44658369998797,230.44628316664992,230.56338909998885,,,232.33017390000168,s,0,1.8825160000124015,None,P3,001,2025-11-20_10h21.40.014,Final Solo Project Psy310,,2025.1.1,59.963290473273645,2025-11-20 10h21.49.752202 +0530,
