reward_today,future_reward,delay,thisN,thisTrialN,thisRepN,key_resp.keys,key_resp.rt,key_resp.duration,trials.thisRepN,trials.thisTrialN,trials.thisN,trials.thisIndex,thisRow.t,notes,trial.started,fixation.started,text.started,key_resp.started,fixation.stopped,trial.stopped,trials.key_resp.keys,trials.key_resp.rt,trials.key_resp.duration,participant,session,date,expName,expVersion,psychopyVersion,frameRate,expStart,
11,30,7,0,0,0,l,8.780890999973053,None,0,0,0,0,0.06298460002290085,,0.05759400001261383,0.06298460002290085,1.010972900025081,1.010972900025081,1.0775799000111874,9.79840110000805,l,8.780890999973053,None,P4,001,2025-11-06_14h10.19.000,Delay discounting,,2025.1.1,60.118589937676504,2025-11-06 14h10.34.866636 +0530,
49,60,89,1,1,0,l,3.4281717999838293,None,0,1,1,4,9.810170500015374,,9.802505600004224,9.810170500015374,10.810111500002677,10.810111500002677,10.810111500002677,14.243909800017718,l,3.4281717999838293,None,P4,001,2025-11-06_14h10.19.000,Delay discounting,,2025.1.1,60.118589937676504,2025-11-06 14h10.34.866636 +0530,
67,75,119,2,2,0,t,5.023142499994719,None,0,2,2,5,14.259700400027214,,14.249908400001004,14.259700400027214,15.243466900021303,15.243466900021303,15.2601324999996,20.276828300004127,t,5.023142499994719,None,P4,001,2025-11-06_14h10.19.000,Delay discounting,,2025.1.1,60.118589937676504,2025-11-06 14h10.34.866636 +0530,
15,35,13,3,3,0,l,1.4145083000184968,None,0,3,3,1,20.292951800016453,,20.281991500000004,20.292951800016453,21.276417300017783,21.276417300017783,21.292985900014173,22.693463300005533,l,1.4145083000184968,None,P4,001,2025-11-06_14h10.19.000,Delay discounting,,2025.1.1,60.118589937676504,2025-11-06 14h10.34.866636 +0530,
27,50,21,4,4,0,l,2.65228130001924,None,0,4,4,2,22.70958610001253,,22.699520900001517,22.70958610001253,23.692971000011312,23.692971000011312,23.70967120002024,26.359988100011833,l,2.65228130001924,None,P4,001,2025-11-06_14h10.19.000,Delay discounting,,2025.1.1,60.118589937676504,2025-11-06 14h10.34.866636 +0530,
40,55,62,5,5,0,l,1.1987767000100575,None,0,5,5,3,26.375968300009845,,26.365329300024314,26.375968300009845,27.359412000019802,27.359412000019802,27.37599680002313,28.55940530000953,l,1.1987767000100575,None,P4,001,2025-11-06_14h10.19.000,Delay discounting,,2025.1.1,60.118589937676504,2025-11-06 14h10.34.866636 +0530,
78,80,162,6,6,0,t,1.7536192999978084,None,0,6,6,6,28.575560199999018,,28.561475200025598,28.575560199999018,29.559111900016433,29.559111900016433,29.575827400025446,31.327538400015328,t,1.7536192999978084,None,P4,001,2025-11-06_14h10.19.000,Delay discounting,,2025.1.1,60.118589937676504,2025-11-06 14h10.34.866636 +0530,
15,35,13,7,0,1,l,1.278846999979578,None,1,0,7,1,31.34257370000705,,31.33119280001847,31.34257370000705,32.34234950001701,32.34234950001701,32.34234950001701,33.62601480001467,l,1.278846999979578,None,P4,001,2025-11-06_14h10.19.000,Delay discounting,,2025.1.1,60.118589937676504,2025-11-06 14h10.34.866636 +0530,
78,80,162,8,1,1,t,0.7822021000029054,None,1,1,8,6,33.642427800019505,,33.63119720001123,33.642427800019505,34.625789600017015,34.625789600017015,34.64236019999953,35.40931700001238,t,0.7822021000029054,None,P4,001,2025-11-06_14h10.19.000,Delay discounting,,2025.1.1,60.118589937676504,2025-11-06 14h10.34.866636 +0530,
27,50,21,9,2,1,l,1.2875623999862,None,1,2,9,2,35.42555820001871,,35.41441810000106,35.42555820001871,36.40907670001616,36.40907670001616,36.42548679999891,37.709319500019774,l,1.2875623999862,None,P4,001,2025-11-06_14h10.19.000,Delay discounting,,2025.1.1,60.118589937676504,2025-11-06 14h10.34.866636 +0530,
49,60,89,10,3,1,t,0.8003403000184335,None,1,3,10,4,37.725488800002495,,37.715171500021825,37.725488800002495,38.7087342000159,38.7087342000159,38.72533780001686,39.525813300017035,t,0.8003403000184335,None,P4,001,2025-11-06_14h10.19.000,Delay discounting,,2025.1.1,60.118589937676504,2025-11-06 14h10.34.866636 +0530,
67,75,119,11,4,1,t,0.9371306000102777,None,1,4,11,5,39.54222510001273,,39.53075770000578,39.54222510001273,40.52526310001849,40.52526310001849,40.54204460000619,41.4756567000004,t,0.9371306000102777,None,P4,001,2025-11-06_14h10.19.000,Delay discounting,,2025.1.1,60.118589937676504,2025-11-06 14h10.34.866636 +0530,
11,30,7,12,5,1,l,1.3606303000124171,None,1,5,12,0,41.49193100002594,,41.480852200009394,41.49193100002594,42.47507240000414,42.47507240000414,42.491797100024996,43.84236500001862,l,1.3606303000124171,None,P4,001,2025-11-06_14h10.19.000,Delay discounting,,2025.1.1,60.118589937676504,2025-11-06 14h10.34.866636 +0530,
40,55,62,13,6,1,l,1.4815989000198897,None,1,6,13,3,43.85827870000503,,43.84773980002501,43.85827870000503,44.841773300024215,44.841773300024215,44.858316000027116,46.32532890001312,l,1.4815989000198897,None,P4,001,2025-11-06_14h10.19.000,Delay discounting,,2025.1.1,60.118589937676504,2025-11-06 14h10.34.866636 +0530,
15,35,13,14,0,2,l,1.5070398999960162,None,2,0,14,1,46.34147300000768,,46.32993880001595,46.34147300000768,47.32486800002516,47.32486800002516,47.34151820000261,48.842038800008595,l,1.5070398999960162,None,P4,001,2025-11-06_14h10.19.000,Delay discounting,,2025.1.1,60.118589937676504,2025-11-06 14h10.34.866636 +0530,
27,50,21,15,1,2,l,2.771347700007027,None,2,1,15,2,48.85795120001421,,48.84742610002286,48.85795120001421,49.84132650002721,49.84132650002721,49.857981700013625,52.62506440002471,l,2.771347700007027,None,P4,001,2025-11-06_14h10.19.000,Delay discounting,,2025.1.1,60.118589937676504,2025-11-06 14h10.34.866636 +0530,
78,80,162,16,2,2,t,1.456514799996512,None,2,2,16,6,52.641155800025444,,52.63039570002002,52.641155800025444,53.62436670000898,53.62436670000898,53.641122700006235,55.0912401000096,t,1.456514799996512,None,P4,001,2025-11-06_14h10.19.000,Delay discounting,,2025.1.1,60.118589937676504,2025-11-06 14h10.34.866636 +0530,
49,60,89,17,3,2,t,1.1636739000095986,None,2,3,17,4,55.10735880001448,,55.09580600002664,55.10735880001448,56.091142500023125,56.091142500023125,56.10775320001994,57.25797790000797,t,1.1636739000095986,None,P4,001,2025-11-06_14h10.19.000,Delay discounting,,2025.1.1,60.118589937676504,2025-11-06 14h10.34.866636 +0530,
11,30,7,18,4,2,l,0.9495367999770679,None,2,4,18,0,57.2741640000022,,57.26343900000211,57.2741640000022,58.257687600009376,58.257687600009376,58.27425960000255,59.20805610000389,l,0.9495367999770679,None,P4,001,2025-11-06_14h10.19.000,Delay discounting,,2025.1.1,60.118589937676504,2025-11-06 14h10.34.866636 +0530,
67,75,119,19,5,2,t,1.0472617000050377,None,2,5,19,5,59.22397460002685,,59.213272799999686,59.22397460002685,60.207402,60.207402,60.2241235000256,61.2576966000197,t,1.0472617000050377,None,P4,001,2025-11-06_14h10.19.000,Delay discounting,,2025.1.1,60.118589937676504,2025-11-06 14h10.34.866636 +0530,
40,55,62,20,6,2,l,9.689250299998093,None,2,6,20,3,61.273646000016015,,61.262785099999746,61.273646000016015,62.25739380001323,62.25739380001323,62.2737754000118,71.95734330001869,l,9.689250299998093,None,P4,001,2025-11-06_14h10.19.000,Delay discounting,,2025.1.1,60.118589937676504,2025-11-06 14h10.34.866636 +0530,
27,50,21,21,0,3,l,2.7846775999933016,None,3,0,21,2,71.97307640002691,,71.96251230000053,71.97307640002691,72.95677970000543,72.95677970000543,72.9731737000111,75.75708040001336,l,2.7846775999933016,None,P4,001,2025-11-06_14h10.19.000,Delay discounting,,2025.1.1,60.118589937676504,2025-11-06 14h10.34.866636 +0530,
11,30,7,22,1,3,l,1.2795329000218771,None,3,1,22,0,75.77280030000838,,75.76273460002267,75.77280030000838,76.75640230000135,76.75640230000135,76.77302570000757,78.04020880002645,l,1.2795329000218771,None,P4,001,2025-11-06_14h10.19.000,Delay discounting,,2025.1.1,60.118589937676504,2025-11-06 14h10.34.866636 +0530,
15,35,13,23,2,3,l,2.060517899983097,None,3,2,23,1,78.0564414000255,,78.04539189999923,78.0564414000255,79.03957780002384,79.03957780002384,79.056381900009,81.10676049999893,l,2.060517899983097,None,P4,001,2025-11-06_14h10.19.000,Delay discounting,,2025.1.1,60.118589937676504,2025-11-06 14h10.34.866636 +0530,
78,80,162,24,3,3,t,0.9962453999905847,None,3,3,24,6,81.12281460000668,,81.1126334000146,81.12281460000668,82.10618990001967,82.10618990001967,82.12275120001868,83.10655260001658,t,0.9962453999905847,None,P4,001,2025-11-06_14h10.19.000,Delay discounting,,2025.1.1,60.118589937676504,2025-11-06 14h10.34.866636 +0530,
67,75,119,25,4,3,t,7.839795799984131,None,3,4,25,5,83.12265030000708,,83.11191800000961,83.12265030000708,84.10592290002387,84.10592290002387,84.1227315000142,91.95611620001728,t,7.839795799984131,None,P4,001,2025-11-06_14h10.19.000,Delay discounting,,2025.1.1,60.118589937676504,2025-11-06 14h10.34.866636 +0530,
40,55,62,26,5,3,l,2.2498158999951556,None,3,5,26,3,91.97208510001656,,91.96182240001508,91.97208510001656,92.95530000000144,92.95530000000144,92.97212730001775,95.20583970000735,l,2.2498158999951556,None,P4,001,2025-11-06_14h10.19.000,Delay discounting,,2025.1.1,60.118589937676504,2025-11-06 14h10.34.866636 +0530,
49,60,89,27,6,3,t,10.967032099986682,None,3,6,27,4,95.22194500002661,,95.21110430001863,95.22194500002661,96.20540640002582,96.20540640002582,96.22197310000774,107.18844050000189,t,10.967032099986682,None,P4,001,2025-11-06_14h10.19.000,Delay discounting,,2025.1.1,60.118589937676504,2025-11-06 14h10.34.866636 +0530,
27,50,21,28,0,4,l,1.1773626999929547,None,4,0,28,2,107.20460810000077,,107.19371170000522,107.20460810000077,108.18802830000641,108.18802830000641,108.20465180001338,109.37129070001538,l,1.1773626999929547,None,P4,001,2025-11-06_14h10.19.000,Delay discounting,,2025.1.1,60.118589937676504,2025-11-06 14h10.34.866636 +0530,
67,75,119,29,1,4,t,6.4260943999979645,None,4,1,29,5,109.38788110000314,,109.37610200000927,109.38788110000314,110.37111700000241,110.37111700000241,110.38785900000948,116.80456509999931,t,6.4260943999979645,None,P4,001,2025-11-06_14h10.19.000,Delay discounting,,2025.1.1,60.118589937676504,2025-11-06 14h10.34.866636 +0530,
15,35,13,30,2,4,l,6.072928500012495,None,4,2,30,1,116.82046860002447,,116.80975010001566,116.82046860002447,117.80398520000745,117.80398520000745,117.82066810000106,123.88754910000716,l,6.072928500012495,None,P4,001,2025-11-06_14h10.19.000,Delay discounting,,2025.1.1,60.118589937676504,2025-11-06 14h10.34.866636 +0530,
78,80,162,31,3,4,t,7.007571699999971,None,4,3,31,6,123.9035083000199,,123.8926071000169,123.9035083000199,124.88685860001715,124.88685860001715,124.90356930001872,131.90355050002108,t,7.007571699999971,None,P4,001,2025-11-06_14h10.19.000,Delay discounting,,2025.1.1,60.118589937676504,2025-11-06 14h10.34.866636 +0530,
40,55,62,32,4,4,l,1.7949512999912258,None,4,4,32,3,131.91967830000794,,131.90871220000554,131.91967830000794,132.9030353000271,132.9030353000271,132.9196875000198,134.7035519000201,l,1.7949512999912258,None,P4,001,2025-11-06_14h10.19.000,Delay discounting,,2025.1.1,60.118589937676504,2025-11-06 14h10.34.866636 +0530,
11,30,7,33,5,4,l,5.20425750000868,None,4,5,33,0,134.7195070000016,,134.70845380000537,134.7195070000016,135.70301230001496,135.70301230001496,135.71954540000297,140.91979189999984,l,5.20425750000868,None,P4,001,2025-11-06_14h10.19.000,Delay discounting,,2025.1.1,60.118589937676504,2025-11-06 14h10.34.866636 +0530,
49,60,89,34,6,4,t,1.5168542999890633,None,4,6,34,4,140.93595600000117,,140.9252897000115,140.93595600000117,141.91911120002624,141.91911120002624,141.93590560002485,143.4530717000016,t,1.5168542999890633,None,P4,001,2025-11-06_14h10.19.000,Delay discounting,,2025.1.1,60.118589937676504,2025-11-06 14h10.34.866636 +0530,
11,30,7,35,0,5,l,2.109494200005429,None,5,0,35,0,143.46885770000517,,143.4585536000086,143.46885770000517,144.45196630002465,144.45196630002465,144.4686082000262,146.5694882000098,l,2.109494200005429,None,P4,001,2025-11-06_14h10.19.000,Delay discounting,,2025.1.1,60.118589937676504,2025-11-06 14h10.34.866636 +0530,
27,50,21,36,1,5,l,1.431474299984984,None,5,1,36,2,146.58544520000578,,146.57482050001272,146.58544520000578,147.56886940001277,147.56886940001277,147.5854995000118,149.00290400002268,l,1.431474299984984,None,P4,001,2025-11-06_14h10.19.000,Delay discounting,,2025.1.1,60.118589937676504,2025-11-06 14h10.34.866636 +0530,
15,35,13,37,2,5,l,2.3670456999971066,None,5,2,37,1,149.0186754000024,,149.00796170000103,149.0186754000024,150.0022258000099,150.0022258000099,150.01859920000425,152.38584520001314,l,2.3670456999971066,None,P4,001,2025-11-06_14h10.19.000,Delay discounting,,2025.1.1,60.118589937676504,2025-11-06 14h10.34.866636 +0530,
40,55,62,38,3,5,l,2.709475600015139,None,5,3,38,3,152.40182440000353,,152.3906315000204,152.40182440000353,153.385061900015,153.385061900015,153.4018421000219,156.10225610001362,l,2.709475600015139,None,P4,001,2025-11-06_14h10.19.000,Delay discounting,,2025.1.1,60.118589937676504,2025-11-06 14h10.34.866636 +0530,
49,60,89,39,4,5,t,2.9521073999931104,None,5,4,39,4,156.11821920002694,,156.1070170000021,156.11821920002694,157.11821549999877,157.11821549999877,157.11821549999877,160.08526980000897,t,2.9521073999931104,None,P4,001,2025-11-06_14h10.19.000,Delay discounting,,2025.1.1,60.118589937676504,2025-11-06 14h10.34.866636 +0530,
78,80,162,40,5,5,t,2.0356293999939226,None,5,5,40,6,160.1014877000125,,160.0905930000008,160.1014877000125,161.08479720001924,161.08479720001924,161.10123850000673,163.13521100001526,t,2.0356293999939226,None,P4,001,2025-11-06_14h10.19.000,Delay discounting,,2025.1.1,60.118589937676504,2025-11-06 14h10.34.866636 +0530,
67,75,119,41,6,5,t,3.331408999976702,None,5,6,41,5,163.1513906000182,,163.1402892000042,163.1513906000182,164.1344836000062,164.1344836000062,164.15131640000618,167.46839360002195,t,3.331408999976702,None,P4,001,2025-11-06_14h10.19.000,Delay discounting,,2025.1.1,60.118589937676504,2025-11-06 14h10.34.866636 +0530,
78,80,162,42,0,6,t,4.6672662000055425,None,6,0,42,6,167.4840987000207,,167.47384930000408,167.4840987000207,168.46768110000994,168.46768110000994,168.48437930000364,173.1511937000032,t,4.6672662000055425,None,P4,001,2025-11-06_14h10.19.000,Delay discounting,,2025.1.1,60.118589937676504,2025-11-06 14h10.34.866636 +0530,
11,30,7,43,1,6,l,0.9662660000030883,None,6,1,43,0,173.1670358000265,,173.15707400001702,173.1670358000265,174.15048700000625,174.15048700000625,174.16708870002185,175.11768380002468,l,0.9662660000030883,None,P4,001,2025-11-06_14h10.19.000,Delay discounting,,2025.1.1,60.118589937676504,2025-11-06 14h10.34.866636 +0530,
15,35,13,44,2,6,l,1.188769099971978,None,6,2,44,1,175.1337307000067,,175.1235698000237,175.1337307000067,176.11723800000618,176.11723800000618,176.13381280002068,177.3175889000122,l,1.188769099971978,None,P4,001,2025-11-06_14h10.19.000,Delay discounting,,2025.1.1,60.118589937676504,2025-11-06 14h10.34.866636 +0530,
40,55,62,45,3,6,t,3.1646566999843344,None,6,3,45,3,177.33377390002715,,177.32254980001017,177.33377390002715,178.31694509999943,178.31694509999943,178.3337236000225,181.48421800002689,t,3.1646566999843344,None,P4,001,2025-11-06_14h10.19.000,Delay discounting,,2025.1.1,60.118589937676504,2025-11-06 14h10.34.866636 +0530,
27,50,21,46,4,6,l,2.0925002000003587,None,6,4,46,2,181.49994639999932,,181.48989980001352,181.49994639999932,182.48357930002385,182.48357930002385,182.4999907000165,184.58381420001388,l,2.0925002000003587,None,P4,001,2025-11-06_14h10.19.000,Delay discounting,,2025.1.1,60.118589937676504,2025-11-06 14h10.34.866636 +0530,
49,60,89,47,5,6,l,3.529583499999717,None,6,5,47,4,184.60007450002013,,184.58888819999993,184.60007450002013,185.58333300001686,185.58333300001686,185.60005660000024,189.11678350000875,l,3.529583499999717,None,P4,001,2025-11-06_14h10.19.000,Delay discounting,,2025.1.1,60.118589937676504,2025-11-06 14h10.34.866636 +0530,
67,75,119,48,6,6,t,0.7439150999998674,None,6,6,48,5,189.1331051000161,,189.12203690002207,189.1331051000161,190.1161386000167,190.1161386000167,190.13304340001196,190.8666219000006,t,0.7439150999998674,None,P4,001,2025-11-06_14h10.19.000,Delay discounting,,2025.1.1,60.118589937676504,2025-11-06 14h10.34.866636 +0530,
78,80,162,49,0,7,t,2.5488141999812797,None,7,0,49,6,190.8829853000061,,190.87157460002345,190.8829853000061,191.8661293000041,191.8661293000041,191.88288230000762,194.41664420001325,t,2.5488141999812797,None,P4,001,2025-11-06_14h10.19.000,Delay discounting,,2025.1.1,60.118589937676504,2025-11-06 14h10.34.866636 +0530,
49,60,89,50,1,7,t,2.7958847999980208,None,7,1,50,4,194.4325560000143,,194.42193260000204,194.4325560000143,195.4160252000147,195.4160252000147,195.43277189999935,198.21634530002484,t,2.7958847999980208,None,P4,001,2025-11-06_14h10.19.000,Delay discounting,,2025.1.1,60.118589937676504,2025-11-06 14h10.34.866636 +0530,
15,35,13,51,2,7,l,1.4240644000237808,None,7,2,51,1,198.23243570001796,,198.2212749000173,198.23243570001796,199.21573990001343,199.21573990001343,199.2325375000073,200.64966870000353,l,1.4240644000237808,None,P4,001,2025-11-06_14h10.19.000,Delay discounting,,2025.1.1,60.118589937676504,2025-11-06 14h10.34.866636 +0530,
27,50,21,52,3,7,t,2.80631060001906,None,7,3,52,2,200.66559430002235,,200.6557142000238,200.66559430002235,201.64910030001192,201.64910030001192,201.66556110000238,204.46600559999933,t,2.80631060001906,None,P4,001,2025-11-06_14h10.19.000,Delay discounting,,2025.1.1,60.118589937676504,2025-11-06 14h10.34.866636 +0530,
11,30,7,53,4,7,l,1.1576556999934837,None,7,4,53,0,204.4819567000086,,204.47144250001293,204.4819567000086,205.46543320000637,205.46543320000637,205.48222930001793,206.6326565000054,l,1.1576556999934837,None,P4,001,2025-11-06_14h10.19.000,Delay discounting,,2025.1.1,60.118589937676504,2025-11-06 14h10.34.866636 +0530,
67,75,119,54,5,7,t,2.1909160999930464,None,7,5,54,5,206.64859050000086,,206.63755620000302,206.64859050000086,207.63205630000448,207.63205630000448,207.6487079000217,209.832312500017,t,2.1909160999930464,None,P4,001,2025-11-06_14h10.19.000,Delay discounting,,2025.1.1,60.118589937676504,2025-11-06 14h10.34.866636 +0530,
40,55,62,55,6,7,t,0.9247875000000931,None,7,6,55,3,209.84837740001967,,209.83747310002218,209.84837740001967,210.83181890001288,210.83181890001288,210.84844400000293,211.76556379999965,t,0.9247875000000931,None,P4,001,2025-11-06_14h10.19.000,Delay discounting,,2025.1.1,60.118589937676504,2025-11-06 14h10.34.866636 +0530,
27,50,21,56,0,8,t,0.5839369999885093,None,8,0,56,2,211.78161150001688,,211.77107340001385,211.78161150001688,212.76491930001066,212.76491930001066,212.7817752000119,213.365389100014,t,0.5839369999885093,None,P4,001,2025-11-06_14h10.19.000,Delay discounting,,2025.1.1,60.118589937676504,2025-11-06 14h10.34.866636 +0530,
15,35,13,57,1,8,l,0.726159900019411,None,8,1,57,1,213.38149080000585,,213.37033770000562,213.38149080000585,214.36486200001673,214.36486200001673,214.381495300011,215.09878390000085,l,0.726159900019411,None,P4,001,2025-11-06_14h10.19.000,Delay discounting,,2025.1.1,60.118589937676504,2025-11-06 14h10.34.866636 +0530,
11,30,7,58,2,8,l,2.5938544000091497,None,8,2,58,0,215.11479440002586,,215.10469950002152,215.11479440002586,216.09810970001854,216.09810970001854,216.11477830001968,218.69834030000493,l,2.5938544000091497,None,P4,001,2025-11-06_14h10.19.000,Delay discounting,,2025.1.1,60.118589937676504,2025-11-06 14h10.34.866636 +0530,
78,80,162,59,3,8,t,0.8969537999946624,None,8,3,59,6,218.71441720001167,,218.70303020000574,218.71441720001167,219.69799950000015,219.69799950000015,219.7146497000067,220.59827250000671,t,0.8969537999946624,None,P4,001,2025-11-06_14h10.19.000,Delay discounting,,2025.1.1,60.118589937676504,2025-11-06 14h10.34.866636 +0530,
67,75,119,60,4,8,t,0.8088318000081927,None,8,4,60,5,220.61449690000154,,220.60349680000218,220.61449690000154,221.5978503000224,221.5978503000224,221.6144424000231,222.41466410001158,t,0.8088318000081927,None,P4,001,2025-11-06_14h10.19.000,Delay discounting,,2025.1.1,60.118589937676504,2025-11-06 14h10.34.866636 +0530,
49,60,89,61,5,8,t,1.878748400020413,None,8,5,61,4,222.43066510002245,,222.41857500001788,222.43066510002245,223.41419619999942,223.41419619999942,223.43107760002022,225.2981606000103,t,1.878748400020413,None,P4,001,2025-11-06_14h10.19.000,Delay discounting,,2025.1.1,60.118589937676504,2025-11-06 14h10.34.866636 +0530,
40,55,62,62,6,8,t,4.3058025000209454,None,8,6,62,3,225.31399150000652,,225.30394250000245,225.31399150000652,226.31373220001115,226.31373220001115,226.31373220001115,230.630711100006,t,4.3058025000209454,None,P4,001,2025-11-06_14h10.19.000,Delay discounting,,2025.1.1,60.118589937676504,2025-11-06 14h10.34.866636 +0530,
11,30,7,63,0,9,l,0.45131999999284744,None,9,0,63,0,230.64694250002503,,230.63460540000233,230.64694250002503,231.63046240000403,231.63046240000403,231.64719750001677,232.09766550001223,l,0.45131999999284744,None,P4,001,2025-11-06_14h10.19.000,Delay discounting,,2025.1.1,60.118589937676504,2025-11-06 14h10.34.866636 +0530,
27,50,21,64,1,9,l,0.9881529999838676,None,9,1,64,2,232.1137932999991,,232.10326150001492,232.1137932999991,233.0969427000091,233.0969427000091,233.11374760000035,234.0976523999998,l,0.9881529999838676,None,P4,001,2025-11-06_14h10.19.000,Delay discounting,,2025.1.1,60.118589937676504,2025-11-06 14h10.34.866636 +0530,
78,80,162,65,2,9,t,9.570454400003655,None,9,2,65,6,234.1136388000159,,234.1030854000128,234.1136388000159,235.09699869999895,235.09699869999895,235.1136626000225,244.68041900001117,t,9.570454400003655,None,P4,001,2025-11-06_14h10.19.000,Delay discounting,,2025.1.1,60.118589937676504,2025-11-06 14h10.34.866636 +0530,
40,55,62,66,3,9,l,1.971352399996249,None,9,3,66,3,244.69612160001998,,244.68522470002063,244.69612160001998,245.67975910002133,245.67975910002133,245.69643930002348,247.6633968000242,l,1.971352399996249,None,P4,001,2025-11-06_14h10.19.000,Delay discounting,,2025.1.1,60.118589937676504,2025-11-06 14h10.34.866636 +0530,
49,60,89,67,4,9,l,0.8068861000065226,None,9,4,67,4,247.67937500000698,,247.66838550000102,247.67937500000698,248.66286010001204,248.66286010001204,248.67960380000295,249.48006790000363,l,0.8068861000065226,None,P4,001,2025-11-06_14h10.19.000,Delay discounting,,2025.1.1,60.118589937676504,2025-11-06 14h10.34.866636 +0530,
67,75,119,68,5,9,t,0.9481465000135358,None,9,5,68,5,249.49600430001738,,249.48488630002248,249.49600430001738,250.47940530002234,250.47940530002234,250.49607270001434,251.43008690001443,t,0.9481465000135358,None,P4,001,2025-11-06_14h10.19.000,Delay discounting,,2025.1.1,60.118589937676504,2025-11-06 14h10.34.866636 +0530,
15,35,13,69,6,9,l,0.8972289999946952,None,9,6,69,1,251.44597110000905,,251.43493090002448,251.44597110000905,252.4293747000047,252.4293747000047,252.44602850000956,253.3296321000089,l,0.8972289999946952,None,P4,001,2025-11-06_14h10.19.000,Delay discounting,,2025.1.1,60.118589937676504,2025-11-06 14h10.34.866636 +0530,
67,75,119,70,0,10,t,0.9091881000204012,None,10,0,70,5,253.34606050001457,,253.3347088000155,253.34606050001457,254.32926250001765,254.32926250001765,254.34595260000788,255.24639020001632,t,0.9091881000204012,None,P4,001,2025-11-06_14h10.19.000,Delay discounting,,2025.1.1,60.118589937676504,2025-11-06 14h10.34.866636 +0530,
11,30,7,71,1,10,l,0.664791499992134,None,10,1,71,0,255.26249069999903,,255.25130130001344,255.26249069999903,256.2458492000005,256.2458492000005,256.26218119999976,256.91290590001154,l,0.664791499992134,None,P4,001,2025-11-06_14h10.19.000,Delay discounting,,2025.1.1,60.118589937676504,2025-11-06 14h10.34.866636 +0530,
27,50,21,72,2,10,l,1.1625126999861095,None,10,2,72,2,256.9291279000172,,256.91781880002236,256.9291279000172,257.91229840001324,257.91229840001324,257.92887140001403,259.07947130000684,l,1.1625126999861095,None,P4,001,2025-11-06_14h10.19.000,Delay discounting,,2025.1.1,60.118589937676504,2025-11-06 14h10.34.866636 +0530,
49,60,89,73,3,10,l,0.8180502000031993,None,10,3,73,4,259.0956045000057,,259.08459430001676,259.0956045000057,260.07890990001033,260.07890990001033,260.0956133000145,260.9126141000015,l,0.8180502000031993,None,P4,001,2025-11-06_14h10.19.000,Delay discounting,,2025.1.1,60.118589937676504,2025-11-06 14h10.34.866636 +0530,
78,80,162,74,4,10,t,1.409858200000599,None,10,4,74,6,260.92865510002594,,260.9177509000001,260.92865510002594,261.9120959000138,261.9120959000138,261.92868770001223,263.32911290001357,t,1.409858200000599,None,P4,001,2025-11-06_14h10.19.000,Delay discounting,,2025.1.1,60.118589937676504,2025-11-06 14h10.34.866636 +0530,
40,55,62,75,5,10,t,1.2065317999804392,None,10,5,75,3,263.3452845000138,,263.3342739000218,263.3452845000138,264.3286827999982,264.3286827999982,264.345381000021,265.545772500016,t,1.2065317999804392,None,P4,001,2025-11-06_14h10.19.000,Delay discounting,,2025.1.1,60.118589937676504,2025-11-06 14h10.34.866636 +0530,
15,35,13,76,6,10,l,1.308751900010975,None,10,6,76,1,265.56180029999814,,265.5499471000221,265.56180029999814,266.5450960000162,266.5450960000162,266.5616697000223,267.8621134000132,l,1.308751900010975,None,P4,001,2025-11-06_14h10.19.000,Delay discounting,,2025.1.1,60.118589937676504,2025-11-06 14h10.34.866636 +0530,
27,50,21,77,0,11,l,0.7846316999930423,None,11,0,77,2,267.8781373000238,,267.8670648000261,267.8781373000238,268.8615977000154,268.8615977000154,268.87841330000083,269.6618087000097,l,0.7846316999930423,None,P4,001,2025-11-06_14h10.19.000,Delay discounting,,2025.1.1,60.118589937676504,2025-11-06 14h10.34.866636 +0530,
40,55,62,78,1,11,l,0.937958599999547,None,11,1,78,3,269.6780011000228,,269.66570090001915,269.6780011000228,270.6612995000032,270.6612995000032,270.67789280001307,271.61200610001106,l,0.937958599999547,None,P4,001,2025-11-06_14h10.19.000,Delay discounting,,2025.1.1,60.118589937676504,2025-11-06 14h10.34.866636 +0530,
49,60,89,79,2,11,l,0.9770662999944761,None,11,2,79,4,271.62804330000654,,271.61688149999827,271.62804330000654,272.61123310000403,272.61123310000403,272.62809140002355,273.59528440001304,l,0.9770662999944761,None,P4,001,2025-11-06_14h10.19.000,Delay discounting,,2025.1.1,60.118589937676504,2025-11-06 14h10.34.866636 +0530,
67,75,119,80,3,11,l,1.0314483999973163,None,11,3,80,5,273.61118800000986,,273.6006704000174,273.61118800000986,274.59473720000824,274.59473720000824,274.6111229000089,275.62860910000745,l,1.0314483999973163,None,P4,001,2025-11-06_14h10.19.000,Delay discounting,,2025.1.1,60.118589937676504,2025-11-06 14h10.34.866636 +0530,
78,80,162,81,4,11,t,2.9531571000115946,None,11,4,81,6,275.6442955000093,,275.6338722000073,275.6442955000093,276.6444163999986,276.6444163999986,276.6444163999986,279.6113968999998,t,2.9531571000115946,None,P4,001,2025-11-06_14h10.19.000,Delay discounting,,2025.1.1,60.118589937676504,2025-11-06 14h10.34.866636 +0530,
15,35,13,82,5,11,l,2.1418389000173192,None,11,5,82,1,279.6275769000058,,279.6166617000126,279.6275769000058,280.61098980001407,280.61098980001407,280.62774000002537,282.76133440001286,l,2.1418389000173192,None,P4,001,2025-11-06_14h10.19.000,Delay discounting,,2025.1.1,60.118589937676504,2025-11-06 14h10.34.866636 +0530,
11,30,7,83,6,11,l,1.1313929999887478,None,11,6,83,0,282.7773891000252,,282.7658757000172,282.7773891000252,283.76082680001855,283.76082680001855,283.7775959999999,284.89478880001116,l,1.1313929999887478,None,P4,001,2025-11-06_14h10.19.000,Delay discounting,,2025.1.1,60.118589937676504,2025-11-06 14h10.34.866636 +0530,
27,50,21,84,0,12,t,2.1972234999993816,None,12,0,84,2,284.9104882000247,,284.900063100009,284.9104882000247,285.8940321000118,285.8940321000118,285.9106232000049,288.0936936000071,t,2.1972234999993816,None,P4,001,2025-11-06_14h10.19.000,Delay discounting,,2025.1.1,60.118589937676504,2025-11-06 14h10.34.866636 +0530,
11,30,7,85,1,12,t,0.4001738000079058,None,12,1,85,0,288.1098091000167,,288.0960969000007,288.1098091000167,289.09339439999894,289.09339439999894,289.1098220999993,289.5101243000245,t,0.4001738000079058,None,P4,001,2025-11-06_14h10.19.000,Delay discounting,,2025.1.1,60.118589937676504,2025-11-06 14h10.34.866636 +0530,
40,55,62,86,2,12,l,9.381701499980409,None,12,2,86,3,289.52656769999885,,289.5125285000249,289.52656769999885,290.5098355000082,290.5098355000082,290.526571400027,299.89388899999904,l,9.381701499980409,None,P4,001,2025-11-06_14h10.19.000,Delay discounting,,2025.1.1,60.118589937676504,2025-11-06 14h10.34.866636 +0530,
49,60,89,87,3,12,t,1.1566246000002138,None,12,3,87,4,299.9095431000169,,299.8990905000246,299.9095431000169,300.8931491000112,300.8931491000112,300.9098251000105,302.06017370001064,t,1.1566246000002138,None,P4,001,2025-11-06_14h10.19.000,Delay discounting,,2025.1.1,60.118589937676504,2025-11-06 14h10.34.866636 +0530,
15,35,13,88,4,12,l,1.0587366000108887,None,12,4,88,1,302.07626880001044,,302.0654656000261,302.07626880001044,303.05962650000583,303.05962650000583,303.07633890002035,304.1266867000086,l,1.0587366000108887,None,P4,001,2025-11-06_14h10.19.000,Delay discounting,,2025.1.1,60.118589937676504,2025-11-06 14h10.34.866636 +0530,
67,75,119,89,5,12,l,0.849810499988962,None,12,5,89,5,304.14293610001914,,304.132064800011,304.14293610001914,305.12616310000885,305.12616310000885,305.1427722000226,305.97676810002304,l,0.849810499988962,None,P4,001,2025-11-06_14h10.19.000,Delay discounting,,2025.1.1,60.118589937676504,2025-11-06 14h10.34.866636 +0530,
78,80,162,90,6,12,t,0.7584823000070173,None,12,6,90,6,305.99263240001164,,305.9815014000051,305.99263240001164,306.97607980002067,306.97607980002067,306.9928302000044,307.7432708000124,t,0.7584823000070173,None,P4,001,2025-11-06_14h10.19.000,Delay discounting,,2025.1.1,60.118589937676504,2025-11-06 14h10.34.866636 +0530,
27,50,21,91,0,13,l,1.045364099991275,None,13,0,91,2,307.75927940002293,,307.7481039999984,307.75927940002293,308.7426807000011,308.7426807000011,308.7592588000116,309.79296940000495,l,1.045364099991275,None,P4,001,2025-11-06_14h10.19.000,Delay discounting,,2025.1.1,60.118589937676504,2025-11-06 14h10.34.866636 +0530,
67,75,119,92,1,13,t,0.8128127999952994,None,13,1,92,5,309.8091004000162,,309.79818430001615,309.8091004000162,310.79259140000795,310.79259140000795,310.8091466000187,311.6096143000177,t,0.8128127999952994,None,P4,001,2025-11-06_14h10.19.000,Delay discounting,,2025.1.1,60.118589937676504,2025-11-06 14h10.34.866636 +0530,
15,35,13,93,2,13,l,1.2057051000010688,None,13,2,93,1,311.62562050001,,311.6144520000089,311.62562050001,312.60897630002,312.60897630002,312.6255281000049,313.8262725000095,l,1.2057051000010688,None,P4,001,2025-11-06_14h10.19.000,Delay discounting,,2025.1.1,60.118589937676504,2025-11-06 14h10.34.866636 +0530,
40,55,62,94,3,13,l,0.7920128999976441,None,13,3,94,3,313.8421806000115,,313.83123970002634,313.8421806000115,314.82564030002686,314.82564030002686,314.8423374000122,315.62601560002076,l,0.7920128999976441,None,P4,001,2025-11-06_14h10.19.000,Delay discounting,,2025.1.1,60.118589937676504,2025-11-06 14h10.34.866636 +0530,
78,80,162,95,4,13,t,1.368991700001061,None,13,4,95,6,315.6422074000002,,315.63081600001897,315.6422074000002,316.6419249000028,316.6419249000028,316.6419249000028,318.0259518000239,t,1.368991700001061,None,P4,001,2025-11-06_14h10.19.000,Delay discounting,,2025.1.1,60.118589937676504,2025-11-06 14h10.34.866636 +0530,
49,60,89,96,5,13,t,1.599948699993547,None,13,5,96,4,318.04187780001666,,318.03128890000517,318.04187780001666,319.02536820000387,319.02536820000387,319.0419519999996,320.64224740001373,t,1.599948699993547,None,P4,001,2025-11-06_14h10.19.000,Delay discounting,,2025.1.1,60.118589937676504,2025-11-06 14h10.34.866636 +0530,
11,30,7,97,6,13,t,1.0016155000193976,None,13,6,97,0,320.6580701000057,,320.6470680000202,320.6580701000057,321.64192760002334,321.64192760002334,321.65850360001787,322.65897560000303,t,1.0016155000193976,None,P4,001,2025-11-06_14h10.19.000,Delay discounting,,2025.1.1,60.118589937676504,2025-11-06 14h10.34.866636 +0530,
11,30,7,98,0,14,l,1.5496543000044767,None,14,0,98,0,322.67487640000763,,322.6592539999983,322.67487640000763,323.6582907999982,323.6582907999982,323.6748946000007,325.2087114000169,l,1.5496543000044767,None,P4,001,2025-11-06_14h10.19.000,Delay discounting,,2025.1.1,60.118589937676504,2025-11-06 14h10.34.866636 +0530,
67,75,119,99,1,14,t,1.1231595999852289,None,14,1,99,5,325.2246042000188,,325.21398130001035,325.2246042000188,326.20826710000983,326.20826710000983,326.22497970002587,327.3420062000223,t,1.1231595999852289,None,P4,001,2025-11-06_14h10.19.000,Delay discounting,,2025.1.1,60.118589937676504,2025-11-06 14h10.34.866636 +0530,
78,80,162,100,2,14,t,9.087458099995274,None,14,2,100,6,327.3581846000161,,327.347181500023,327.3581846000161,328.34151680002105,328.34151680002105,328.35807350001414,337.4414442999987,t,9.087458099995274,None,P4,001,2025-11-06_14h10.19.000,Delay discounting,,2025.1.1,60.118589937676504,2025-11-06 14h10.34.866636 +0530,
15,35,13,101,3,14,l,1.0162508000212256,None,14,3,101,1,337.45740650000516,,337.4467221000232,337.45740650000516,338.4409142000077,338.4409142000077,338.4573769000126,339.45776690001367,l,1.0162508000212256,None,P4,001,2025-11-06_14h10.19.000,Delay discounting,,2025.1.1,60.118589937676504,2025-11-06 14h10.34.866636 +0530,
40,55,62,102,4,14,t,1.724217300012242,None,14,4,102,3,339.47405630000867,,339.4619843000255,339.47405630000867,340.45737600000575,340.45737600000575,340.47389880000264,342.19119910002337,t,1.724217300012242,None,P4,001,2025-11-06_14h10.19.000,Delay discounting,,2025.1.1,60.118589937676504,2025-11-06 14h10.34.866636 +0530,
27,50,21,103,5,14,l,1.2448576999886427,None,14,5,103,2,342.20706990000326,,342.19660630001454,342.20706990000326,343.19063820000156,343.19063820000156,343.20721090000006,344.4410500000231,l,1.2448576999886427,None,P4,001,2025-11-06_14h10.19.000,Delay discounting,,2025.1.1,60.118589937676504,2025-11-06 14h10.34.866636 +0530,
49,60,89,104,6,14,t,1.3029362999950536,None,14,6,104,4,344.45698770001763,,344.4453299000161,344.45698770001763,345.44040300001507,345.44040300001507,345.4569625000004,346.7575468000141,t,1.3029362999950536,None,P4,001,2025-11-06_14h10.19.000,Delay discounting,,2025.1.1,60.118589937676504,2025-11-06 14h10.34.866636 +0530,
