Face_file,Sound_file,Face_emotion,Sound_emotion,Congruency,corr_resp,thisN,thisTrialN,thisRepN,key_resp.keys,key_resp.corr,key_resp.rt,key_resp.duration,trials.thisRepN,trials.thisTrialN,trials.thisN,trials.thisIndex,thisRow.t,notes,Instruction.started,key_instruct.started,Instruction.stopped,key_instruct.keys,key_instruct.rt,key_instruct.duration,trial.started,Fixation.started,Image.started,key_resp.started,Sound.started,Fixation.stopped,Sound.stopped,Image.stopped,trial.stopped,trials.key_resp.keys,trials.key_resp.corr,trials.key_resp.rt,trials.key_resp.duration,participant,session,date,expName,expVersion,psychopyVersion,frameRate,expStart
Face_file/Anger.jpg,Sound_file/Anger.wav,Anger,Anger,C,a,1,1,0,a,1,3.5717845,None,0,1,1,0,7.6558129,,,,,,,,7.6532054,7.6558129,7.931548,7.931548,7.931545467,8.1650178,9.9371454,9.9371454,11.5152416,a,1,3.5717845,None,p4,1,2025-11-20_11h02.34.759,Final Solo Project Psy310,,2025.1.1,59.89623576,2025-11-20 11h02.44.284646 +0530
Face_file/Sad.jpg,Sound_file/Sad.wav,Sad,Sad,C,s,5,5,0,s,1,1.6108319,None,0,5,5,2,18.3558279,,,,,,,,18.3538029,18.3558279,18.8307805,18.8307805,18.83051117,18.8641366,,,20.4478433,s,1,1.6108319,None,p4,1,2025-11-20_11h02.34.759,Final Solo Project Psy310,,2025.1.1,59.89623576,2025-11-20 11h02.44.284646 +0530
Face_file/Happy.jpg,Sound_file/Happy.wav,Happy,Happy,C,h,7,7,0,h,1,4.7033207,None,0,7,7,1,22.446209,,,,,,,,22.4356919,22.446209,22.7647076,22.7647076,22.76394767,22.9478972,24.7686306,24.7686306,27.4805571,h,1,4.7033207,None,p4,1,2025-11-20_11h02.34.759,Final Solo Project Psy310,,2025.1.1,59.89623576,2025-11-20 11h02.44.284646 +0530
Face_file/Sad.jpg,Sound_file/Sad.wav,Sad,Sad,C,s,10,1,1,s,1,1.8944877,None,1,1,10,2,31.7424177,,,,,,,,31.7388074,31.7424177,32.2299118,32.2299118,32.22990117,32.2466739,,,34.1305669,s,1,1.8944877,None,p4,1,2025-11-20_11h02.34.759,Final Solo Project Psy310,,2025.1.1,59.89623576,2025-11-20 11h02.44.284646 +0530
Face_file/Anger.jpg,Sound_file/Anger.wav,Anger,Anger,C,a,14,5,1,a,1,1.2631176,None,1,5,14,0,43.4910573,,,,,,,,43.4880329,43.4910573,43.7624639,43.7624639,43.76266987,43.9961188,,,45.0300485,a,1,1.2631176,None,p4,1,2025-11-20_11h02.34.759,Final Solo Project Psy310,,2025.1.1,59.89623576,2025-11-20 11h02.44.284646 +0530
Face_file/Happy.jpg,Sound_file/Happy.wav,Happy,Happy,C,h,17,8,1,h,1,2.666537,None,1,8,17,1,49.5033998,,,,,,,,49.4937997,49.5033998,49.8460466,49.8460466,49.84562587,50.0128234,51.8507135,51.8507135,52.5293903,h,1,2.666537,None,p4,1,2025-11-20_11h02.34.759,Final Solo Project Psy310,,2025.1.1,59.89623576,2025-11-20 11h02.44.284646 +0530
Face_file/Sad.jpg,Sound_file/Sad.wav,Sad,Sad,C,s,19,1,2,s,1,2.1920304,None,2,1,19,2,54.7718559,,,,,,,,54.7694659,54.7718559,55.245443,55.245443,55.24520397,55.2785393,57.2513922,57.2513922,57.4456574,s,1,2.1920304,None,p4,1,2025-11-20_11h02.34.759,Final Solo Project Psy310,,2025.1.1,59.89623576,2025-11-20 11h02.44.284646 +0530
Face_file/Happy.jpg,Sound_file/Happy.wav,Happy,Happy,C,h,23,5,2,h,1,1.2181,None,2,5,23,1,63.7842049,,,,,,,,63.7732526,63.7842049,64.111873,64.111873,64.11131327,64.2951436,,,65.3456432,h,1,1.2181,None,p4,1,2025-11-20_11h02.34.759,Final Solo Project Psy310,,2025.1.1,59.89623576,2025-11-20 11h02.44.284646 +0530
Face_file/Anger.jpg,Sound_file/Anger.wav,Anger,Anger,C,a,26,8,2,a,1,1.3494815,None,2,8,26,0,72.1471954,,,,,,,,72.1440362,72.1471954,72.4777822,72.4777822,72.47758317,72.660921,,,73.8281634,a,1,1.3494815,None,p4,1,2025-11-20_11h02.34.759,Final Solo Project Psy310,,2025.1.1,59.89623576,2025-11-20 11h02.44.284646 +0530
Face_file/Sad.jpg,Sound_file/Sad.wav,Sad,Sad,C,s,29,2,3,s,1,1.267533,None,3,2,29,2,78.2733572,,,,,,,,78.2701624,78.2733572,78.7604342,78.7604342,78.76037177,78.7768877,,,80.0443751,s,1,1.267533,None,p4,1,2025-11-20_11h02.34.759,Final Solo Project Psy310,,2025.1.1,59.89623576,2025-11-20 11h02.44.284646 +0530
Face_file/Anger.jpg,Sound_file/Anger.wav,Anger,Anger,C,a,32,5,3,a,1,2.33186,None,3,5,32,0,83.3003236,,,,,,,,83.2879627,83.3003236,83.6268685,83.6268685,83.62692107,83.8099069,85.6313048,85.6313048,85.960475,a,1,2.33186,None,p4,1,2025-11-20_11h02.34.759,Final Solo Project Psy310,,2025.1.1,59.89623576,2025-11-20 11h02.44.284646 +0530
Face_file/Happy.jpg,Sound_file/Happy.wav,Happy,Happy,C,h,35,8,3,h,1,1.3952069,None,3,8,35,1,90.2932094,,,,,,,,90.2844128,90.2932094,90.6438106,90.6438106,90.64303757,90.7936748,,,92.0442302,h,1,1.3952069,None,p4,1,2025-11-20_11h02.34.759,Final Solo Project Psy310,,2025.1.1,59.89623576,2025-11-20 11h02.44.284646 +0530
Face_file/Sad.jpg,Sound_file/Sad.wav,Sad,Sad,C,s,36,0,4,s,1,1.5144135,None,4,0,36,2,92.0994689,,,,,,,,92.088231,92.0994689,92.5762783,92.5762783,92.57609037,92.609705,,,94.0934268,s,1,1.5144135,None,p4,1,2025-11-20_11h02.34.759,Final Solo Project Psy310,,2025.1.1,59.89623576,2025-11-20 11h02.44.284646 +0530
Face_file/Anger.jpg,Sound_file/Anger.wav,Anger,Anger,C,a,38,2,4,a,1,1.4989659,None,4,2,38,0,96.0603031,,,,,,,,96.0575301,96.0603031,96.4263022,96.4263022,96.42597337,96.5593373,,,97.9267157,a,1,1.4989659,None,p4,1,2025-11-20_11h02.34.759,Final Solo Project Psy310,,2025.1.1,59.89623576,2025-11-20 11h02.44.284646 +0530
Face_file/Happy.jpg,Sound_file/Happy.wav,Happy,Happy,C,h,41,5,4,h,1,3.4800947,None,4,5,41,1,103.3396171,,,,,,,,103.3310983,103.3396171,103.6930601,103.6930601,103.692154,103.8428599,105.6988801,105.6988801,107.1758069,h,1,3.4800947,None,p4,1,2025-11-20_11h02.34.759,Final Solo Project Psy310,,2025.1.1,59.89623576,2025-11-20 11h02.44.284646 +0530
Face_file/Happy.jpg,Sound_file/Happy.wav,Happy,Happy,C,h,46,1,5,h,1,2.4766737,None,5,1,46,1,119.5540436,,,,,,,,119.5438989,119.5540436,119.8919651,119.8919651,119.8912956,120.0583345,121.8975442,121.8975442,122.3749803,h,1,2.4766737,None,p4,1,2025-11-20_11h02.34.759,Final Solo Project Psy310,,2025.1.1,59.89623576,2025-11-20 11h02.44.284646 +0530
Face_file/Sad.jpg,Sound_file/Sad.wav,Sad,Sad,C,s,50,5,5,s,1,0.8221611,None,5,5,50,2,129.1316183,,,,,,,,129.1277419,129.1316183,129.6075381,129.6075381,129.6072572,129.6408523,,,130.4414728,s,1,0.8221611,None,p4,1,2025-11-20_11h02.34.759,Final Solo Project Psy310,,2025.1.1,59.89623576,2025-11-20 11h02.44.284646 +0530
Face_file/Anger.jpg,Sound_file/Anger.wav,Anger,Anger,C,a,52,7,5,a,1,1.6840954,None,5,7,52,0,132.16341,,,,,,,,132.1517034,132.16341,132.4739107,132.4739107,132.4737561,132.673883,,,134.1745392,a,1,1.6840954,None,p4,1,2025-11-20_11h02.34.759,Final Solo Project Psy310,,2025.1.1,59.89623576,2025-11-20 11h02.44.284646 +0530
Face_file/Sad.jpg,Sound_file/Sad.wav,Sad,Sad,C,s,55,1,6,s,1,2.5800213,None,6,1,55,2,137.9527233,,,,,,,,137.9503242,137.9527233,138.440347,138.440347,138.4400065,138.4568912,140.4397104,140.4397104,141.0237713,s,1,2.5800213,None,p4,1,2025-11-20_11h02.34.759,Final Solo Project Psy310,,2025.1.1,59.89623576,2025-11-20 11h02.44.284646 +0530
Face_file/Happy.jpg,Sound_file/Happy.wav,Happy,Happy,C,h,58,4,6,h,1,1.8276975,None,6,4,58,1,145.6079447,,,,,,,,145.6007389,145.6079447,145.9736812,145.9736812,145.9728214,146.1234794,,,147.8077213,h,1,1.8276975,None,p4,1,2025-11-20_11h02.34.759,Final Solo Project Psy310,,2025.1.1,59.89623576,2025-11-20 11h02.44.284646 +0530
Face_file/Anger.jpg,Sound_file/Anger.wav,Anger,Anger,C,a,60,6,6,a,1,2.9347693,None,6,6,60,0,151.2789893,,,,,,,,151.276305,151.2789893,151.6227802,151.6227802,151.62259,151.7893176,153.6247093,153.6247093,154.5733035,a,1,2.9347693,None,p4,1,2025-11-20_11h02.34.759,Final Solo Project Psy310,,2025.1.1,59.89623576,2025-11-20 11h02.44.284646 +0530
Face_file/Happy.jpg,Sound_file/Happy.wav,Happy,Happy,C,h,65,2,7,h,1,34.455879,None,7,2,65,1,166.3320985,,,,,,,,166.3242418,166.3320985,166.6720196,166.6720196,166.6712958,166.8388547,168.6728494,168.6728494,201.136638,h,1,34.455879,None,p4,1,2025-11-20_11h02.34.759,Final Solo Project Psy310,,2025.1.1,59.89623576,2025-11-20 11h02.44.284646 +0530
Face_file/Anger.jpg,Sound_file/Anger.wav,Anger,Anger,C,a,67,4,7,a,1,3.9928709,None,7,4,67,0,204.5199791,,,,,,,,204.5079156,204.5199791,204.8361856,204.8361856,204.8359918,205.0193197,206.8432493,206.8432493,208.8363832,a,1,3.9928709,None,p4,1,2025-11-20_11h02.34.759,Final Solo Project Psy310,,2025.1.1,59.89623576,2025-11-20 11h02.44.284646 +0530
Face_file/Sad.jpg,Sound_file/Sad.wav,Sad,Sad,C,s,70,7,7,s,1,1.5428371,None,7,7,70,2,215.0555708,,,,,,,,215.0527194,215.0555708,215.5187136,215.5187136,215.5186617,215.5687562,,,217.0694491,s,1,1.5428371,None,p4,1,2025-11-20_11h02.34.759,Final Solo Project Psy310,,2025.1.1,59.89623576,2025-11-20 11h02.44.284646 +0530
Face_file/Sad.jpg,Sound_file/Sad.wav,Sad,Sad,C,s,72,0,8,s,1,3.348165,None,8,0,72,2,219.1927888,,,,,,,,219.189744,219.1927888,219.6685712,219.6685712,219.6684123,219.7018229,221.6772484,221.6772484,223.0183672,s,1,3.348165,None,p4,1,2025-11-20_11h02.34.759,Final Solo Project Psy310,,2025.1.1,59.89623576,2025-11-20 11h02.44.284646 +0530
Face_file/Anger.jpg,Sound_file/Anger.wav,Anger,Anger,C,a,73,1,8,a,1,1.3953887,None,8,1,73,0,223.2171928,,,,,,,,223.2139918,223.2171928,223.5182152,223.5182152,223.517976,223.718329,,,224.9188537,a,1,1.3953887,None,p4,1,2025-11-20_11h02.34.759,Final Solo Project Psy310,,2025.1.1,59.89623576,2025-11-20 11h02.44.284646 +0530
Face_file/Happy.jpg,Sound_file/Happy.wav,Happy,Happy,C,h,78,6,8,h,1,1.1130188,None,8,6,78,1,233.4348126,,,,,,,,233.4252129,233.4348126,233.7680012,233.7680012,233.7673577,233.9348593,,,234.8856982,h,1,1.1130188,None,p4,1,2025-11-20_11h02.34.759,Final Solo Project Psy310,,2025.1.1,59.89623576,2025-11-20 11h02.44.284646 +0530
Face_file/Happy.jpg,Sound_file/Happy.wav,Happy,Happy,C,h,84,3,9,h,1,1.0251656,None,9,3,84,1,243.8958437,,,,,,,,243.8853098,243.8958437,244.2336818,244.2336818,244.2334674,244.4009767,,,245.2680193,h,1,1.0251656,None,p4,1,2025-11-20_11h02.34.759,Final Solo Project Psy310,,2025.1.1,59.89623576,2025-11-20 11h02.44.284646 +0530
Face_file/Anger.jpg,Sound_file/Anger.wav,Anger,Anger,C,a,85,4,9,a,1,1.8709262,None,9,4,85,0,245.4577705,,,,,,,,245.4436239,245.4577705,245.8002652,245.8002652,245.7997565,245.9668938,,,247.6843164,a,1,1.8709262,None,p4,1,2025-11-20_11h02.34.759,Final Solo Project Psy310,,2025.1.1,59.89623576,2025-11-20 11h02.44.284646 +0530
Face_file/Sad.jpg,Sound_file/Sad.wav,Sad,Sad,C,s,87,6,9,s,1,0.8906234,None,9,6,87,2,250.00426,,,,,,,,249.992576,250.00426,250.4834155,250.4834155,250.4831221,250.5164863,,,251.3841496,s,1,0.8906234,None,p4,1,2025-11-20_11h02.34.759,Final Solo Project Psy310,,2025.1.1,59.89623576,2025-11-20 11h02.44.284646 +0530
Face_file/Happy.jpg,Sound_file/Happy.wav,Happy,Happy,C,h,90,0,10,h,1,2.0111404,None,10,0,90,1,256.319113,,,,,,,,256.3080254,256.319113,256.6335051,256.6335051,256.6325447,256.833292,258.6410178,258.6410178,258.6493841,h,1,2.0111404,None,p4,1,2025-11-20_11h02.34.759,Final Solo Project Psy310,,2025.1.1,59.89623576,2025-11-20 11h02.44.284646 +0530
Face_file/Anger.jpg,Sound_file/Anger.wav,Anger,Anger,C,a,93,3,10,a,1,1.4154536,None,10,3,93,0,264.2680094,,,,,,,,264.2550745,264.2680094,264.6157919,264.6157919,264.6155853,264.7820052,,,266.032905,a,1,1.4154536,None,p4,1,2025-11-20_11h02.34.759,Final Solo Project Psy310,,2025.1.1,59.89623576,2025-11-20 11h02.44.284646 +0530
Face_file/Sad.jpg,Sound_file/Sad.wav,Sad,Sad,C,s,95,5,10,s,1,1.3554797,None,10,5,95,2,268.0236043,,,,,,,,268.0092063,268.0236043,268.4984453,268.4984453,268.4983512,268.5320928,,,269.8656119,s,1,1.3554797,None,p4,1,2025-11-20_11h02.34.759,Final Solo Project Psy310,,2025.1.1,59.89623576,2025-11-20 11h02.44.284646 +0530
Face_file/Happy.jpg,Sound_file/Happy.wav,Happy,Happy,C,h,101,2,11,h,1,1.2830221,None,11,2,101,1,279.8524604,,,,,,,,279.8438931,279.8524604,280.1820668,280.1820668,280.1814407,280.3654159,,,281.4659679,h,1,1.2830221,None,p4,1,2025-11-20_11h02.34.759,Final Solo Project Psy310,,2025.1.1,59.89623576,2025-11-20 11h02.44.284646 +0530
Face_file/Anger.jpg,Sound_file/Anger.wav,Anger,Anger,C,a,104,5,11,a,1,1.4719157,None,11,5,104,0,286.3584678,,,,,,,,286.3545249,286.3584678,286.6976071,286.6976071,286.6975327,286.8641324,,,288.1816713,a,1,1.4719157,None,p4,1,2025-11-20_11h02.34.759,Final Solo Project Psy310,,2025.1.1,59.89623576,2025-11-20 11h02.44.284646 +0530
Face_file/Sad.jpg,Sound_file/Sad.wav,Sad,Sad,C,s,107,8,11,s,1,2.1359803,None,11,8,107,2,291.9720215,,,,,,,,291.9686937,291.9720215,292.4638032,292.4638032,292.4634668,292.4804353,294.4660438,294.4660438,294.6138851,s,1,2.1359803,None,p4,1,2025-11-20_11h02.34.759,Final Solo Project Psy310,,2025.1.1,59.89623576,2025-11-20 11h02.44.284646 +0530
Face_file/Anger.jpg,Sound_file/Sad.wav,Anger,Sad,I,s,0,0,0,s,1,2.9429232,None,0,0,0,7,4.0513397,,,,,,,,4.0382063,4.0513397,4.481441,4.481441,4.465354067,4.5651278,6.4667033,6.4814325,7.4321446,s,1,2.9429232,None,p4,1,2025-11-20_11h02.34.759,Final Solo Project Psy310,,2025.1.1,59.89623576,2025-11-20 11h02.44.284646 +0530
Face_file/Happy.jpg,Sound_file/Anger.wav,Happy,Anger,I,a,2,2,0,a,1,1.3181329,None,0,2,2,3,11.9710038,,,,,,,,11.9620589,11.9710038,12.0317747,12.0317747,12.03118367,12.481943,,,13.3658745,a,1,1.3181329,None,p4,1,2025-11-20_11h02.34.759,Final Solo Project Psy310,,2025.1.1,59.89623576,2025-11-20 11h02.44.284646 +0530
Face_file/Sad.jpg,Sound_file/Anger.wav,Sad,Anger,I,a,3,3,0,a,1,1.5954608,None,0,3,3,4,13.6610478,,,,,,,,13.6586049,13.6610478,13.881172,13.881172,13.88117727,14.1643098,,,15.4815965,a,1,1.5954608,None,p4,1,2025-11-20_11h02.34.759,Final Solo Project Psy310,,2025.1.1,59.89623576,2025-11-20 11h02.44.284646 +0530
Face_file/Sad.jpg,Sound_file/Happy.wav,Sad,Happy,I,h,4,4,0,h,1,2.3171123,None,0,4,4,6,15.5366138,,,,,,,,15.5344668,15.5366138,15.997642,15.997642,15.99742487,16.047931,17.9991474,17.9991474,18.3312113,h,1,2.3171123,None,p4,1,2025-11-20_11h02.34.759,Final Solo Project Psy310,,2025.1.1,59.89623576,2025-11-20 11h02.44.284646 +0530
Face_file/Happy.jpg,Sound_file/Sad.wav,Happy,Sad,I,s,6,6,0,s,1,1.2375753,None,0,6,6,8,20.6242346,,,,,,,,20.6150694,20.6242346,20.9814388,20.9814388,20.98063157,21.1312187,,,22.2319183,s,1,1.2375753,None,p4,1,2025-11-20_11h02.34.759,Final Solo Project Psy310,,2025.1.1,59.89623576,2025-11-20 11h02.44.284646 +0530
Face_file/Anger.jpg,Sound_file/Happy.wav,Anger,Happy,I,h,8,8,0,h,1,2.0552594,None,0,8,8,5,27.5627337,,,,,,,,27.5487799,27.5627337,27.9802022,27.9802022,27.98003727,28.0638116,29.9893771,29.9893771,30.0474109,h,1,2.0552594,None,p4,1,2025-11-20_11h02.34.759,Final Solo Project Psy310,,2025.1.1,59.89623576,2025-11-20 11h02.44.284646 +0530
Face_file/Anger.jpg,Sound_file/Happy.wav,Anger,Happy,I,h,9,0,1,h,1,1.1346513,None,1,0,9,5,30.1039169,,,,,,,,30.1008637,30.1039169,30.5471308,30.5471308,30.54671917,30.6134322,,,31.6973515,h,1,1.1346513,None,p4,1,2025-11-20_11h02.34.759,Final Solo Project Psy310,,2025.1.1,59.89623576,2025-11-20 11h02.44.284646 +0530
Face_file/Sad.jpg,Sound_file/Happy.wav,Sad,Happy,I,h,11,2,1,h,1,3.6512871,None,1,2,11,6,34.1851115,,,,,,,,34.1821029,34.1851115,34.6633821,34.6633821,34.66307297,34.6968563,36.6626133,36.6626133,38.3303391,h,1,3.6512871,None,p4,1,2025-11-20_11h02.34.759,Final Solo Project Psy310,,2025.1.1,59.89623576,2025-11-20 11h02.44.284646 +0530
Face_file/Anger.jpg,Sound_file/Sad.wav,Anger,Sad,I,s,12,3,1,s,1,1.274435,None,1,3,12,7,38.3668663,,,,,,,,38.363772,38.3668663,38.8464694,38.8464694,38.84656287,38.8796266,,,40.1302815,s,1,1.274435,None,p4,1,2025-11-20_11h02.34.759,Final Solo Project Psy310,,2025.1.1,59.89623576,2025-11-20 11h02.44.284646 +0530
Face_file/Sad.jpg,Sound_file/Anger.wav,Sad,Anger,I,a,13,4,1,a,1,2.5917891,None,1,4,13,4,40.2914751,,,,,,,,40.2880837,40.2914751,40.6630379,40.6630379,40.66290757,40.7961654,42.6624546,42.6624546,43.2630575,a,1,2.5917891,None,p4,1,2025-11-20_11h02.34.759,Final Solo Project Psy310,,2025.1.1,59.89623576,2025-11-20 11h02.44.284646 +0530
Face_file/Happy.jpg,Sound_file/Anger.wav,Happy,Anger,I,a,15,6,1,a,1,1.3893635,None,1,6,15,3,45.331859,,,,,,,,45.3207964,45.331859,45.5630072,45.5630072,45.56261727,45.8464057,,,46.9639602,a,1,1.3893635,None,p4,1,2025-11-20_11h02.34.759,Final Solo Project Psy310,,2025.1.1,59.89623576,2025-11-20 11h02.44.284646 +0530
Face_file/Happy.jpg,Sound_file/Sad.wav,Happy,Sad,I,s,16,7,1,h,0,1.8187933,None,1,7,16,8,47.1355062,,,,,,,,47.12732,47.1355062,47.4963285,47.4963285,47.49578827,47.646583,,,49.3304019,h,0,1.8187933,None,p4,1,2025-11-20_11h02.34.759,Final Solo Project Psy310,,2025.1.1,59.89623576,2025-11-20 11h02.44.284646 +0530
Face_file/Sad.jpg,Sound_file/Anger.wav,Sad,Anger,I,a,18,0,2,a,1,1.6960087,None,2,0,18,4,52.6942189,,,,,,,,52.6829904,52.6942189,53.0285084,53.0285084,53.02847387,53.1953977,,,54.729371,a,1,1.6960087,None,p4,1,2025-11-20_11h02.34.759,Final Solo Project Psy310,,2025.1.1,59.89623576,2025-11-20 11h02.44.284646 +0530
Face_file/Happy.jpg,Sound_file/Anger.wav,Happy,Anger,I,a,20,2,2,a,1,2.1643792,None,2,2,20,3,57.7521909,,,,,,,,57.7422983,57.7521909,57.9455352,57.9455352,57.94506057,58.2621941,59.95413,59.95413,60.1120009,a,1,2.1643792,None,p4,1,2025-11-20_11h02.34.759,Final Solo Project Psy310,,2025.1.1,59.89623576,2025-11-20 11h02.44.284646 +0530
Face_file/Happy.jpg,Sound_file/Sad.wav,Happy,Sad,I,s,21,3,2,s,1,1.2743829,None,2,3,21,8,60.2510334,,,,,,,,60.2423127,60.2510334,60.6122064,60.6122064,60.61142617,60.7623457,,,61.8960885,s,1,1.2743829,None,p4,1,2025-11-20_11h02.34.759,Final Solo Project Psy310,,2025.1.1,59.89623576,2025-11-20 11h02.44.284646 +0530
Face_file/Anger.jpg,Sound_file/Happy.wav,Anger,Happy,I,h,22,4,2,h,1,1.1445482,None,2,4,22,5,61.9886094,,,,,,,,61.9755811,61.9886094,62.4283937,62.4283937,62.42816937,62.4948551,,,63.5791355,h,1,1.1445482,None,p4,1,2025-11-20_11h02.34.759,Final Solo Project Psy310,,2025.1.1,59.89623576,2025-11-20 11h02.44.284646 +0530
Face_file/Anger.jpg,Sound_file/Sad.wav,Anger,Sad,I,s,24,6,2,s,1,1.4884538,None,2,6,24,7,65.4041318,,,,,,,,65.392983,65.4041318,65.8779821,65.8779821,65.87776507,65.9113843,,,67.3784303,s,1,1.4884538,None,p4,1,2025-11-20_11h02.34.759,Final Solo Project Psy310,,2025.1.1,59.89623576,2025-11-20 11h02.44.284646 +0530
Face_file/Sad.jpg,Sound_file/Happy.wav,Sad,Happy,I,h,25,7,2,h,1,4.0758928,None,2,7,25,6,67.437877,,,,,,,,67.4333842,67.437877,67.8944728,67.8944728,67.89455357,67.9444898,69.9001673,69.9001673,71.9779869,h,1,4.0758928,None,p4,1,2025-11-20_11h02.34.759,Final Solo Project Psy310,,2025.1.1,59.89623576,2025-11-20 11h02.44.284646 +0530
Face_file/Sad.jpg,Sound_file/Happy.wav,Sad,Happy,I,h,27,0,3,h,1,1.6486771,None,3,0,27,6,73.8884092,,,,,,,,73.8850286,73.8884092,74.3607152,74.3607152,74.36056727,74.3940629,,,76.0113087,h,1,1.6486771,None,p4,1,2025-11-20_11h02.34.759,Final Solo Project Psy310,,2025.1.1,59.89623576,2025-11-20 11h02.44.284646 +0530
Face_file/Anger.jpg,Sound_file/Happy.wav,Anger,Happy,I,h,28,1,3,h,1,1.6729431,None,3,1,28,5,76.0845318,,,,,,,,76.0816024,76.0845318,76.5442836,76.5442836,76.54395407,76.5937972,,,78.2277556,h,1,1.6729431,None,p4,1,2025-11-20_11h02.34.759,Final Solo Project Psy310,,2025.1.1,59.89623576,2025-11-20 11h02.44.284646 +0530
Face_file/Anger.jpg,Sound_file/Sad.wav,Anger,Sad,I,s,30,3,3,s,1,1.1627348,None,3,3,30,7,80.1010362,,,,,,,,80.098428,80.1010362,80.5772695,80.5772695,80.57702597,80.6105221,,,81.7444835,s,1,1.1627348,None,p4,1,2025-11-20_11h02.34.759,Final Solo Project Psy310,,2025.1.1,59.89623576,2025-11-20 11h02.44.284646 +0530
Face_file/Happy.jpg,Sound_file/Sad.wav,Happy,Sad,I,s,31,4,3,s,1,0.8237966,None,3,4,31,8,81.9141113,,,,,,,,81.904857,81.9141113,82.2775734,82.2775734,82.27691417,82.4274709,,,83.1114904,s,1,0.8237966,None,p4,1,2025-11-20_11h02.34.759,Final Solo Project Psy310,,2025.1.1,59.89623576,2025-11-20 11h02.44.284646 +0530
Face_file/Happy.jpg,Sound_file/Anger.wav,Happy,Anger,I,a,33,6,3,a,1,1.6998515,None,3,6,33,3,86.2612292,,,,,,,,86.2509804,86.2612292,86.4605454,86.4605454,86.45981287,86.7604325,,,88.1780995,a,1,1.6998515,None,p4,1,2025-11-20_11h02.34.759,Final Solo Project Psy310,,2025.1.1,59.89623576,2025-11-20 11h02.44.284646 +0530
Face_file/Sad.jpg,Sound_file/Anger.wav,Sad,Anger,I,a,34,7,3,a,1,1.3927416,None,3,7,34,4,88.3543252,,,,,,,,88.3430403,88.3543252,88.7099869,88.7099869,88.70977157,88.8598774,,,90.1107093,a,1,1.3927416,None,p4,1,2025-11-20_11h02.34.759,Final Solo Project Psy310,,2025.1.1,59.89623576,2025-11-20 11h02.44.284646 +0530
Face_file/Anger.jpg,Sound_file/Happy.wav,Anger,Happy,I,h,37,1,4,h,1,1.2661173,None,4,1,37,5,94.1661524,,,,,,,,94.1633384,94.1661524,94.6262302,94.6262302,94.62617587,94.6761434,,,95.8935924,h,1,1.2661173,None,p4,1,2025-11-20_11h02.34.759,Final Solo Project Psy310,,2025.1.1,59.89623576,2025-11-20 11h02.44.284646 +0530
Face_file/Anger.jpg,Sound_file/Sad.wav,Anger,Sad,I,s,39,3,4,s,1,2.6436155,None,4,3,39,7,97.9854256,,,,,,,,97.9831804,97.9854256,98.4592497,98.4592497,98.45931967,98.4926937,100.4665474,100.4665474,101.1096075,s,1,2.6436155,None,p4,1,2025-11-20_11h02.34.759,Final Solo Project Psy310,,2025.1.1,59.89623576,2025-11-20 11h02.44.284646 +0530
Face_file/Happy.jpg,Sound_file/Anger.wav,Happy,Anger,I,a,40,4,4,a,1,1.5595914,None,4,4,40,3,101.3685094,,,,,,,,101.3587001,101.3685094,101.6096621,101.6096621,101.6088772,101.8763211,,,103.1770739,a,1,1.5595914,None,p4,1,2025-11-20_11h02.34.759,Final Solo Project Psy310,,2025.1.1,59.89623576,2025-11-20 11h02.44.284646 +0530
Face_file/Sad.jpg,Sound_file/Anger.wav,Sad,Anger,I,a,42,6,4,a,1,2.9463357,None,4,6,42,4,107.3466546,,,,,,,,107.3352581,107.3466546,107.6753411,107.6753411,107.6753707,107.8586372,109.6788233,109.6788233,110.6256376,a,1,2.9463357,None,p4,1,2025-11-20_11h02.34.759,Final Solo Project Psy310,,2025.1.1,59.89623576,2025-11-20 11h02.44.284646 +0530
Face_file/Happy.jpg,Sound_file/Sad.wav,Happy,Sad,I,s,43,7,4,s,1,2.323225,None,4,7,43,8,110.7804851,,,,,,,,110.7717275,110.7804851,111.126024,111.126024,111.125168,111.2923922,113.1268579,113.1268579,113.4585955,s,1,2.323225,None,p4,1,2025-11-20_11h02.34.759,Final Solo Project Psy310,,2025.1.1,59.89623576,2025-11-20 11h02.44.284646 +0530
Face_file/Sad.jpg,Sound_file/Happy.wav,Sad,Happy,I,h,44,8,4,h,1,2.088344,None,4,8,44,6,113.5105123,,,,,,,,113.4989222,113.5105123,113.958519,113.958519,113.9580435,114.0249194,115.9577885,115.9577885,116.0587146,h,1,2.088344,None,p4,1,2025-11-20_11h02.34.759,Final Solo Project Psy310,,2025.1.1,59.89623576,2025-11-20 11h02.44.284646 +0530
Face_file/Anger.jpg,Sound_file/Happy.wav,Anger,Happy,I,h,45,0,5,h,1,2.8322686,None,5,0,45,5,116.1082562,,,,,,,,116.1053766,116.1082562,116.5583729,116.5583729,116.5578546,116.6081066,118.5630377,118.5630377,119.3917758,h,1,2.8322686,None,p4,1,2025-11-20_11h02.34.759,Final Solo Project Psy310,,2025.1.1,59.89623576,2025-11-20 11h02.44.284646 +0530
Face_file/Happy.jpg,Sound_file/Anger.wav,Happy,Anger,I,a,47,2,5,a,1,2.0590979,None,5,2,47,3,122.6275464,,,,,,,,122.6194827,122.6275464,122.8751478,122.8751478,122.8742223,123.1417141,124.8838536,124.8838536,124.9415265,a,1,2.0590979,None,p4,1,2025-11-20_11h02.34.759,Final Solo Project Psy310,,2025.1.1,59.89623576,2025-11-20 11h02.44.284646 +0530
Face_file/Sad.jpg,Sound_file/Anger.wav,Sad,Anger,I,a,48,3,5,a,1,1.3348923,None,5,3,48,4,125.1086041,,,,,,,,125.097218,125.1086041,125.4411286,125.4411286,125.4408778,125.6077286,,,126.7919957,a,1,1.3348923,None,p4,1,2025-11-20_11h02.34.759,Final Solo Project Psy310,,2025.1.1,59.89623576,2025-11-20 11h02.44.284646 +0530
Face_file/Sad.jpg,Sound_file/Happy.wav,Sad,Happy,I,h,49,4,5,h,1,1.7547619,None,5,4,49,6,126.8536093,,,,,,,,126.8510123,126.8536093,127.3241884,127.3241884,127.3240712,127.3575886,,,129.0913919,h,1,1.7547619,None,p4,1,2025-11-20_11h02.34.759,Final Solo Project Psy310,,2025.1.1,59.89623576,2025-11-20 11h02.44.284646 +0530
Face_file/Happy.jpg,Sound_file/Sad.wav,Happy,Sad,I,s,51,6,5,s,1,0.9513381,None,5,6,51,8,130.6046565,,,,,,,,130.5960808,130.6046565,130.974551,130.974551,130.9739318,131.107904,,,131.9416368,s,1,0.9513381,None,p4,1,2025-11-20_11h02.34.759,Final Solo Project Psy310,,2025.1.1,59.89623576,2025-11-20 11h02.44.284646 +0530
Face_file/Anger.jpg,Sound_file/Sad.wav,Anger,Sad,I,s,53,8,5,s,1,1.3627383,None,5,8,53,7,134.230669,,,,,,,,134.2282073,134.230669,134.7070888,134.7070888,134.7068285,134.7405304,,,136.0744364,s,1,1.3627383,None,p4,1,2025-11-20_11h02.34.759,Final Solo Project Psy310,,2025.1.1,59.89623576,2025-11-20 11h02.44.284646 +0530
Face_file/Sad.jpg,Sound_file/Anger.wav,Sad,Anger,I,a,54,0,6,a,1,1.2905449,None,6,0,54,4,136.2508276,,,,,,,,136.246048,136.2508276,136.6067734,136.6067734,136.6068387,136.7569687,,,137.9073576,a,1,1.2905449,None,p4,1,2025-11-20_11h02.34.759,Final Solo Project Psy310,,2025.1.1,59.89623576,2025-11-20 11h02.44.284646 +0530
Face_file/Happy.jpg,Sound_file/Anger.wav,Happy,Anger,I,a,56,2,6,s,0,1.4960085,None,6,2,56,3,141.3272229,,,,,,,,141.3177843,141.3272229,141.5404579,141.5404579,141.5396692,141.8405024,,,143.0408026,s,0,1.4960085,None,p4,1,2025-11-20_11h02.34.759,Final Solo Project Psy310,,2025.1.1,59.89623576,2025-11-20 11h02.44.284646 +0530
Face_file/Happy.jpg,Sound_file/Sad.wav,Happy,Sad,I,s,57,3,6,s,1,1.8558606,None,6,3,57,8,143.1992002,,,,,,,,143.1909314,143.1992002,143.5736943,143.5736943,143.5731089,143.7070146,,,145.4409157,s,1,1.8558606,None,p4,1,2025-11-20_11h02.34.759,Final Solo Project Psy310,,2025.1.1,59.89623576,2025-11-20 11h02.44.284646 +0530
Face_file/Anger.jpg,Sound_file/Sad.wav,Anger,Sad,I,s,59,5,6,a,0,2.7745878,None,6,5,59,7,147.8868669,,,,,,,,147.8753394,147.8868669,148.3397573,148.3397573,148.3393797,148.3895683,150.3473505,150.3473505,151.1233356,a,0,2.7745878,None,p4,1,2025-11-20_11h02.34.759,Final Solo Project Psy310,,2025.1.1,59.89623576,2025-11-20 11h02.44.284646 +0530
Face_file/Sad.jpg,Sound_file/Happy.wav,Sad,Happy,I,h,61,7,6,s,0,2.161607,None,6,7,61,6,154.6148914,,,,,,,,154.6118155,154.6148914,155.0890766,155.0890766,155.0890855,155.1223417,157.0934437,157.0934437,157.2563633,s,0,2.161607,None,p4,1,2025-11-20_11h02.34.759,Final Solo Project Psy310,,2025.1.1,59.89623576,2025-11-20 11h02.44.284646 +0530
Face_file/Anger.jpg,Sound_file/Happy.wav,Anger,Happy,I,h,62,8,6,h,1,2.0169486,None,6,8,62,5,157.3055778,,,,,,,,157.3025599,157.3055778,157.7555983,157.7555983,157.7555246,157.8054526,159.7563484,159.7563484,159.7891581,h,1,2.0169486,None,p4,1,2025-11-20_11h02.34.759,Final Solo Project Psy310,,2025.1.1,59.89623576,2025-11-20 11h02.44.284646 +0530
Face_file/Anger.jpg,Sound_file/Happy.wav,Anger,Happy,I,h,63,0,7,h,1,2.6516857,None,7,0,63,5,159.8366065,,,,,,,,159.8341164,159.8366065,160.2888438,160.2888438,160.288804,160.3388596,162.288546,162.288546,162.955561,h,1,2.6516857,None,p4,1,2025-11-20_11h02.34.759,Final Solo Project Psy310,,2025.1.1,59.89623576,2025-11-20 11h02.44.284646 +0530
Face_file/Happy.jpg,Sound_file/Anger.wav,Happy,Anger,I,a,64,1,7,a,1,2.7133629,None,7,1,64,3,163.212547,,,,,,,,163.2030377,163.212547,163.4557972,163.4557972,163.4552422,163.7225324,165.4600801,165.4600801,166.1721438,a,1,2.7133629,None,p4,1,2025-11-20_11h02.34.759,Final Solo Project Psy310,,2025.1.1,59.89623576,2025-11-20 11h02.44.284646 +0530
Face_file/Happy.jpg,Sound_file/Sad.wav,Happy,Sad,I,s,66,3,7,s,1,2.6887257,None,7,3,66,8,201.2943435,,,,,,,,201.2856256,201.2943435,201.6367488,201.6367488,201.6361975,201.8033819,203.6397352,203.6397352,204.3364307,s,1,2.6887257,None,p4,1,2025-11-20_11h02.34.759,Final Solo Project Psy310,,2025.1.1,59.89623576,2025-11-20 11h02.44.284646 +0530
Face_file/Anger.jpg,Sound_file/Sad.wav,Anger,Sad,I,s,68,5,7,s,1,2.635887,None,7,5,68,7,208.8718723,,,,,,,,208.8694989,208.8718723,209.3358919,209.3358919,209.3357122,209.3854886,211.3351824,211.3351824,211.9856111,s,1,2.635887,None,p4,1,2025-11-20_11h02.34.759,Final Solo Project Psy310,,2025.1.1,59.89623576,2025-11-20 11h02.44.284646 +0530
Face_file/Sad.jpg,Sound_file/Happy.wav,Sad,Happy,I,h,69,6,7,h,1,2.5241711,None,7,6,69,6,212.023967,,,,,,,,212.0208362,212.023967,212.4856141,212.4856141,212.4853386,212.5356819,214.4896286,214.4896286,215.0193868,h,1,2.5241711,None,p4,1,2025-11-20_11h02.34.759,Final Solo Project Psy310,,2025.1.1,59.89623576,2025-11-20 11h02.44.284646 +0530
Face_file/Sad.jpg,Sound_file/Anger.wav,Sad,Anger,I,a,71,8,7,a,1,1.5220886,None,7,8,71,4,217.2522999,,,,,,,,217.2499545,217.2522999,217.6018129,217.6018129,217.6018178,217.7518524,,,219.1361455,a,1,1.5220886,None,p4,1,2025-11-20_11h02.34.759,Final Solo Project Psy310,,2025.1.1,59.89623576,2025-11-20 11h02.44.284646 +0530
Face_file/Anger.jpg,Sound_file/Sad.wav,Anger,Sad,I,s,74,2,8,s,1,1.3889267,None,8,2,74,7,224.9647977,,,,,,,,224.9623115,224.9647977,225.4515681,225.4515681,225.4512845,225.4679458,,,226.8521666,s,1,1.3889267,None,p4,1,2025-11-20_11h02.34.759,Final Solo Project Psy310,,2025.1.1,59.89623576,2025-11-20 11h02.44.284646 +0530
Face_file/Happy.jpg,Sound_file/Sad.wav,Happy,Sad,I,s,75,3,8,a,0,2.0275713,None,8,3,75,8,227.0655212,,,,,,,,227.0549104,227.0655212,227.3853061,227.3853061,227.3846223,227.5685379,229.3904078,229.3904078,229.4181877,a,0,2.0275713,None,p4,1,2025-11-20_11h02.34.759,Final Solo Project Psy310,,2025.1.1,59.89623576,2025-11-20 11h02.44.284646 +0530
Face_file/Sad.jpg,Sound_file/Happy.wav,Sad,Happy,I,h,76,4,8,h,1,1.6010588,None,8,4,76,6,229.4678311,,,,,,,,229.455871,229.4678311,229.9175909,229.9175909,229.91765,229.9677174,,,231.5352217,h,1,1.6010588,None,p4,1,2025-11-20_11h02.34.759,Final Solo Project Psy310,,2025.1.1,59.89623576,2025-11-20 11h02.44.284646 +0530
Face_file/Anger.jpg,Sound_file/Happy.wav,Anger,Happy,I,h,77,5,8,h,1,1.1624128,None,8,5,77,5,231.6072768,,,,,,,,231.604511,231.6072768,232.0676234,232.0676234,232.0675357,232.1175399,,,233.235125,h,1,1.1624128,None,p4,1,2025-11-20_11h02.34.759,Final Solo Project Psy310,,2025.1.1,59.89623576,2025-11-20 11h02.44.284646 +0530
Face_file/Sad.jpg,Sound_file/Anger.wav,Sad,Anger,I,a,79,7,8,a,1,1.3810689,None,8,7,79,4,235.066351,,,,,,,,235.0547627,235.066351,235.4172649,235.4172649,235.4173361,235.5675132,,,236.8012353,a,1,1.3810689,None,p4,1,2025-11-20_11h02.34.759,Final Solo Project Psy310,,2025.1.1,59.89623576,2025-11-20 11h02.44.284646 +0530
Face_file/Happy.jpg,Sound_file/Anger.wav,Happy,Anger,I,a,80,8,8,a,1,1.224758,None,8,8,80,3,237.1257385,,,,,,,,237.1150883,237.1257385,237.3344995,237.3344995,237.3336049,237.6344121,,,238.5688951,a,1,1.224758,None,p4,1,2025-11-20_11h02.34.759,Final Solo Project Psy310,,2025.1.1,59.89623576,2025-11-20 11h02.44.284646 +0530
Face_file/Happy.jpg,Sound_file/Anger.wav,Happy,Anger,I,a,81,0,9,a,1,1.0413738,None,9,0,81,3,238.8317823,,,,,,,,238.8234406,238.8317823,239.0843272,239.0843272,239.0839993,239.3349158,,,240.1350976,a,1,1.0413738,None,p4,1,2025-11-20_11h02.34.759,Final Solo Project Psy310,,2025.1.1,59.89623576,2025-11-20 11h02.44.284646 +0530
Face_file/Sad.jpg,Sound_file/Happy.wav,Sad,Happy,I,h,82,1,9,s,0,1.0147858,None,9,1,82,6,240.2192777,,,,,,,,240.2085468,240.2192777,240.6669625,240.6669625,240.666996,240.7337441,,,241.6843027,s,0,1.0147858,None,p4,1,2025-11-20_11h02.34.759,Final Solo Project Psy310,,2025.1.1,59.89623576,2025-11-20 11h02.44.284646 +0530
Face_file/Anger.jpg,Sound_file/Happy.wav,Anger,Happy,I,h,83,2,9,h,1,1.4959642,None,9,2,83,5,241.7539844,,,,,,,,241.7513627,241.7539844,242.2171988,242.2171988,242.216619,242.2671127,,,243.7176633,h,1,1.4959642,None,p4,1,2025-11-20_11h02.34.759,Final Solo Project Psy310,,2025.1.1,59.89623576,2025-11-20 11h02.44.284646 +0530
Face_file/Happy.jpg,Sound_file/Sad.wav,Happy,Sad,I,s,86,5,9,s,1,1.7205453,None,9,5,86,8,247.8688293,,,,,,,,247.8584747,247.8688293,248.2172971,248.2172971,248.2165254,248.3839077,,,249.9513932,s,1,1.7205453,None,p4,1,2025-11-20_11h02.34.759,Final Solo Project Psy310,,2025.1.1,59.89623576,2025-11-20 11h02.44.284646 +0530
Face_file/Sad.jpg,Sound_file/Anger.wav,Sad,Anger,I,a,88,7,9,a,1,2.0062661,None,9,7,88,4,251.5413058,,,,,,,,251.5388659,251.5413058,251.8997164,251.8997164,251.8997094,252.0495929,253.8991055,253.8991055,253.9165333,a,1,2.0062661,None,p4,1,2025-11-20_11h02.34.759,Final Solo Project Psy310,,2025.1.1,59.89623576,2025-11-20 11h02.44.284646 +0530
Face_file/Anger.jpg,Sound_file/Sad.wav,Anger,Sad,I,s,89,8,9,s,1,1.6867952,None,9,8,89,7,253.9534345,,,,,,,,253.9500579,253.9534345,254.4159957,254.4159957,254.4158846,254.4659235,,,256.1168697,s,1,1.6867952,None,p4,1,2025-11-20_11h02.34.759,Final Solo Project Psy310,,2025.1.1,59.89623576,2025-11-20 11h02.44.284646 +0530
Face_file/Anger.jpg,Sound_file/Sad.wav,Anger,Sad,I,s,91,1,10,s,1,3.3548171,None,10,1,91,7,258.6926768,,,,,,,,258.6791873,258.6926768,259.1492306,259.1492306,259.1490101,259.1993391,261.1568785,261.1568785,262.5164599,s,1,3.3548171,None,p4,1,2025-11-20_11h02.34.759,Final Solo Project Psy310,,2025.1.1,59.89623576,2025-11-20 11h02.44.284646 +0530
Face_file/Happy.jpg,Sound_file/Sad.wav,Happy,Sad,I,s,92,2,10,s,1,1.036748,None,10,2,92,8,262.7718966,,,,,,,,262.7619484,262.7718966,263.0330149,263.0330149,263.0322533,263.2830313,,,264.0834746,s,1,1.036748,None,p4,1,2025-11-20_11h02.34.759,Final Solo Project Psy310,,2025.1.1,59.89623576,2025-11-20 11h02.44.284646 +0530
Face_file/Happy.jpg,Sound_file/Anger.wav,Happy,Anger,I,a,94,4,10,a,1,1.3862337,None,10,4,94,3,266.3109084,,,,,,,,266.3003467,266.3109084,266.5660189,266.5660189,266.5652448,266.8157743,,,267.9670822,a,1,1.3862337,None,p4,1,2025-11-20_11h02.34.759,Final Solo Project Psy310,,2025.1.1,59.89623576,2025-11-20 11h02.44.284646 +0530
Face_file/Anger.jpg,Sound_file/Happy.wav,Anger,Happy,I,h,96,6,10,h,1,1.7843402,None,10,6,96,5,269.9384767,,,,,,,,269.9354031,269.9384767,270.3816385,270.3816385,270.3817274,270.4486666,,,272.1819965,h,1,1.7843402,None,p4,1,2025-11-20_11h02.34.759,Final Solo Project Psy310,,2025.1.1,59.89623576,2025-11-20 11h02.44.284646 +0530
Face_file/Sad.jpg,Sound_file/Happy.wav,Sad,Happy,I,h,97,7,10,h,1,1.1326565,None,10,7,97,6,272.2434944,,,,,,,,272.2397941,272.2434944,272.7148961,272.7148961,272.7146521,272.7481686,,,273.8486759,h,1,1.1326565,None,p4,1,2025-11-20_11h02.34.759,Final Solo Project Psy310,,2025.1.1,59.89623576,2025-11-20 11h02.44.284646 +0530
Face_file/Sad.jpg,Sound_file/Anger.wav,Sad,Anger,I,a,98,8,10,a,1,1.9158427,None,10,8,98,4,274.0335692,,,,,,,,274.0302421,274.0335692,274.3649236,274.3649236,274.3646012,274.5482054,,,276.2822327,a,1,1.9158427,None,p4,1,2025-11-20_11h02.34.759,Final Solo Project Psy310,,2025.1.1,59.89623576,2025-11-20 11h02.44.284646 +0530
Face_file/Anger.jpg,Sound_file/Sad.wav,Anger,Sad,I,s,99,0,11,s,1,1.4485378,None,11,0,99,7,276.3337099,,,,,,,,276.3303785,276.3337099,276.7983942,276.7983942,276.798215,276.8480152,,,278.2488626,s,1,1.4485378,None,p4,1,2025-11-20_11h02.34.759,Final Solo Project Psy310,,2025.1.1,59.89623576,2025-11-20 11h02.44.284646 +0530
Face_file/Happy.jpg,Sound_file/Sad.wav,Happy,Sad,I,s,100,1,11,s,1,0.8706616,None,11,1,100,8,278.4290247,,,,,,,,278.4191863,278.4290247,278.7820382,278.7820382,278.7811495,278.9320334,,,279.6658621,s,1,0.8706616,None,p4,1,2025-11-20_11h02.34.759,Final Solo Project Psy310,,2025.1.1,59.89623576,2025-11-20 11h02.44.284646 +0530
Face_file/Sad.jpg,Sound_file/Anger.wav,Sad,Anger,I,a,102,3,11,a,1,2.1240469,None,11,3,102,4,281.6321756,,,,,,,,281.6203974,281.6321756,281.9977893,281.9977893,281.9977623,282.1477586,284.0054782,284.0054782,284.1315508,a,1,2.1240469,None,p4,1,2025-11-20_11h02.34.759,Final Solo Project Psy310,,2025.1.1,59.89623576,2025-11-20 11h02.44.284646 +0530
Face_file/Sad.jpg,Sound_file/Happy.wav,Sad,Happy,I,h,103,4,11,h,1,1.5371729,None,11,4,103,6,284.170186,,,,,,,,284.1678122,284.170186,284.6307752,284.6307752,284.6307112,284.6807876,,,286.1815785,h,1,1.5371729,None,p4,1,2025-11-20_11h02.34.759,Final Solo Project Psy310,,2025.1.1,59.89623576,2025-11-20 11h02.44.284646 +0530
Face_file/Happy.jpg,Sound_file/Anger.wav,Happy,Anger,I,a,105,6,11,a,1,1.2373376,None,11,6,105,3,288.4571637,,,,,,,,288.4477738,288.4571637,288.7145443,288.7145443,288.7139023,288.9646309,,,289.9652395,a,1,1.2373376,None,p4,1,2025-11-20_11h02.34.759,Final Solo Project Psy310,,2025.1.1,59.89623576,2025-11-20 11h02.44.284646 +0530
Face_file/Anger.jpg,Sound_file/Happy.wav,Anger,Happy,I,h,106,7,11,h,1,1.442076,None,11,7,106,5,290.0466493,,,,,,,,290.0348556,290.0466493,290.4806827,290.4806827,290.480513,290.5472821,,,291.9312787,h,1,1.442076,None,p4,1,2025-11-20_11h02.34.759,Final Solo Project Psy310,,2025.1.1,59.89623576,2025-11-20 11h02.44.284646 +0530
,,,,,,,,,,,,,,,,,,,0.0017708,0.0162467,3.9578251,space,3.9311672,None,,,,,,,,,,,,,,p4,1,2025-11-20_11h02.34.759,Final Solo Project Psy310,,2025.1.1,59.89623576,2025-11-20 11h02.44.284646 +0530
,,,,,,,,,,,1.806208275,,,,,,,,,,,,,,,,,,,,,,,,,,,,,,,,,,
,,,,,,,,,,,2.877529169,,,,,,,,,,,,,,,,,,,,,,,,,,,,,,,,,,
