Face_file,Sound_file,Face_emotion,Sound_emotion,Congruency,corr_resp,thisN,thisTrialN,thisRepN,key_resp.keys,key_resp.corr,key_resp.rt,key_resp.duration,trials.thisRepN,trials.thisTrialN,trials.thisN,trials.thisIndex,thisRow.t,notes,Instruction.started,key_instruct.started,Instruction.stopped,key_instruct.keys,key_instruct.rt,key_instruct.duration,trial.started,Fixation.started,Image.started,key_resp.started,Sound.started,Fixation.stopped,Sound.stopped,Image.stopped,trial.stopped,trials.key_resp.keys,trials.key_resp.corr,trials.key_resp.rt,trials.key_resp.duration,participant,session,date,expName,expVersion,psychopyVersion,frameRate,expStart,
,,,,,,,,,,,,,,,,,,,0.0015175000007729977,0.014283200000136276,73.45452710000063,space,73.40990249999959,None,,,,,,,,,,,,,,P5,001,2025-11-23_18h52.48.581,Final Solo Project Psy310,,2025.1.1,60.01028576314349,2025-11-23 18h52.57.969224 +0530,
Face_file/Sad.jpg,Sound_file/Sad.wav,Sad,Sad,C,s,0,0,0,s,1,3.1126815999996325,None,0,0,0,2,73.49566969999978,,,,,,,,73.49287299999924,73.49566969999978,73.96195640000042,73.96195640000042,73.9549760666671,74.00495059999957,75.95465270000022,75.97128639999937,77.0884944999998,s,1,3.1126815999996325,None,P5,001,2025-11-23_18h52.48.581,Final Solo Project Psy310,,2025.1.1,60.01028576314349,2025-11-23 18h52.57.969224 +0530,
Face_file/Sad.jpg,Sound_file/Anger.wav,Sad,Anger,I,a,1,1,0,a,1,1.4831536000001506,None,0,1,1,4,77.25625670000045,,,,,,,,77.25376909999977,77.25625670000045,77.58817240000099,77.58817240000099,77.5876788666667,77.77122679999957,,,79.0884729999998,a,1,1.4831536000001506,None,P5,001,2025-11-23_18h52.48.581,Final Solo Project Psy310,,2025.1.1,60.01028576314349,2025-11-23 18h52.57.969224 +0530,
Face_file/Happy.jpg,Sound_file/Happy.wav,Happy,Happy,C,h,2,2,0,h,1,1.3284891999992396,None,0,2,2,1,79.31695749999926,,,,,,,,79.30870499999946,79.31695749999926,79.60517869999967,79.60517869999967,79.60422386666711,79.82190179999998,,,80.93919620000088,h,1,1.3284891999992396,None,P5,001,2025-11-23_18h52.48.581,Final Solo Project Psy310,,2025.1.1,60.01028576314349,2025-11-23 18h52.57.969224 +0530,
Face_file/Happy.jpg,Sound_file/Sad.wav,Happy,Sad,I,s,3,3,0,s,1,3.1777517999998963,None,0,3,3,8,81.06060989999969,,,,,,,,81.05225339999924,81.06060989999969,81.45502789999955,81.45502789999955,81.45416716666683,81.5715154999998,83.45416069999919,83.45416069999919,84.63789730000099,s,1,3.1777517999998963,None,P5,001,2025-11-23_18h52.48.581,Final Solo Project Psy310,,2025.1.1,60.01028576314349,2025-11-23 18h52.57.969224 +0530,
Face_file/Anger.jpg,Sound_file/Happy.wav,Anger,Happy,I,h,4,4,0,h,1,3.217740500000218,None,0,4,4,5,84.76977299999999,,,,,,,,84.76740170000085,84.76977299999999,85.1376906000005,85.1376906000005,85.13744236666595,85.27081419999922,87.13730380000015,87.13730380000015,88.37109860000055,h,1,3.217740500000218,None,P5,001,2025-11-23_18h52.48.581,Final Solo Project Psy310,,2025.1.1,60.01028576314349,2025-11-23 18h52.57.969224 +0530,
Face_file/Anger.jpg,Sound_file/Anger.wav,Anger,Anger,C,a,5,5,0,a,1,1.5375562000008358,None,0,5,5,0,88.48780070000066,,,,,,,,88.48553429999993,88.48780070000066,88.8704947999995,88.8704947999995,88.87062776666632,88.98747010000079,,,90.42102049999994,a,1,1.5375562000008358,None,P5,001,2025-11-23_18h52.48.581,Final Solo Project Psy310,,2025.1.1,60.01028576314349,2025-11-23 18h52.57.969224 +0530,
Face_file/Sad.jpg,Sound_file/Happy.wav,Sad,Happy,I,h,6,6,0,h,1,1.5674147000008816,None,0,6,6,6,90.46031179999954,,,,,,,,90.45713959999921,90.46031179999954,90.93710979999923,90.93710979999923,90.93675906666637,90.97049189999962,,,92.52091210000071,h,1,1.5674147000008816,None,P5,001,2025-11-23_18h52.48.581,Final Solo Project Psy310,,2025.1.1,60.01028576314349,2025-11-23 18h52.57.969224 +0530,
Face_file/Happy.jpg,Sound_file/Anger.wav,Happy,Anger,I,a,7,7,0,a,1,2.470438100001047,None,0,7,7,3,92.75533650000034,,,,,,,,92.74661530000049,92.75533650000034,93.03749229999994,93.03749229999994,93.0368580666675,93.2544338000007,95.03684629999952,95.03684629999952,95.52042360000087,a,1,2.470438100001047,None,P5,001,2025-11-23_18h52.48.581,Final Solo Project Psy310,,2025.1.1,60.01028576314349,2025-11-23 18h52.57.969224 +0530,
Face_file/Anger.jpg,Sound_file/Sad.wav,Anger,Sad,I,s,8,8,0,s,1,2.4958155999993323,None,0,8,8,7,95.55551940000078,,,,,,,,95.54323690000092,95.55551940000078,96.02012540000032,96.02012540000032,96.02022096666612,96.0699953000003,98.02072340000086,98.02072340000086,98.52028819999941,s,1,2.4958155999993323,None,P5,001,2025-11-23_18h52.48.581,Final Solo Project Psy310,,2025.1.1,60.01028576314349,2025-11-23 18h52.57.969224 +0530,
Face_file/Happy.jpg,Sound_file/Sad.wav,Happy,Sad,I,s,9,0,1,s,1,1.842118999999002,None,1,0,9,8,98.65032880000035,,,,,,,,98.64022169999953,98.65032880000035,99.02056679999987,99.02056679999987,99.01994386666617,99.15385160000005,,,100.87130380000053,s,1,1.842118999999002,None,P5,001,2025-11-23_18h52.48.581,Final Solo Project Psy310,,2025.1.1,60.01028576314349,2025-11-23 18h52.57.969224 +0530,
Face_file/Anger.jpg,Sound_file/Happy.wav,Anger,Happy,I,h,10,1,1,h,1,2.714186500001233,None,1,1,10,5,100.92656829999942,,,,,,,,100.91526060000069,100.92656829999942,101.3866823999997,101.3866823999997,101.38663506666695,101.43663940000079,103.38632879999932,103.38632879999932,104.1033969,h,1,2.714186500001233,None,P5,001,2025-11-23_18h52.48.581,Final Solo Project Psy310,,2025.1.1,60.01028576314349,2025-11-23 18h52.57.969224 +0530,
Face_file/Sad.jpg,Sound_file/Anger.wav,Sad,Anger,I,a,11,2,1,a,1,4.512662799999816,None,1,2,11,4,104.21338060000016,,,,,,,,104.21010109999952,104.21338060000016,104.60314649999964,104.60314649999964,104.60305046666714,104.71967890000087,106.60604650000096,106.60604650000096,109.12266049999926,a,1,4.512662799999816,None,P5,001,2025-11-23_18h52.48.581,Final Solo Project Psy310,,2025.1.1,60.01028576314349,2025-11-23 18h52.57.969224 +0530,
Face_file/Happy.jpg,Sound_file/Happy.wav,Happy,Happy,C,h,12,3,1,h,1,1.810358599999745,None,1,3,12,1,109.25076099999933,,,,,,,,109.24126410000099,109.25076099999933,109.63858989999972,109.63858989999972,109.63959246666697,109.75596530000075,,,111.45371180000075,h,1,1.810358599999745,None,P5,001,2025-11-23_18h52.48.581,Final Solo Project Psy310,,2025.1.1,60.01028576314349,2025-11-23 18h52.57.969224 +0530,
Face_file/Happy.jpg,Sound_file/Anger.wav,Happy,Anger,I,a,13,4,1,a,1,1.3379963999996107,None,1,4,13,3,111.69283309999992,,,,,,,,111.6851497000007,111.69283309999992,111.98640920000071,111.98640920000071,111.98584946666621,112.20311460000084,,,113.33646570000019,a,1,1.3379963999996107,None,P5,001,2025-11-23_18h52.48.581,Final Solo Project Psy310,,2025.1.1,60.01028576314349,2025-11-23 18h52.57.969224 +0530,
Face_file/Sad.jpg,Sound_file/Happy.wav,Sad,Happy,I,h,14,5,1,h,1,1.0039152999997896,None,1,5,14,6,113.39790829999947,,,,,,,,113.38659530000041,113.39790829999947,113.8521340999996,113.8521340999996,113.8519279666673,113.9021928000002,,,114.86952399999973,h,1,1.0039152999997896,None,P5,001,2025-11-23_18h52.48.581,Final Solo Project Psy310,,2025.1.1,60.01028576314349,2025-11-23 18h52.57.969224 +0530,
Face_file/Anger.jpg,Sound_file/Anger.wav,Anger,Anger,C,a,15,6,1,a,1,2.683169599999019,None,1,6,15,0,114.99924079999982,,,,,,,,114.9964987000003,114.99924079999982,115.38589409999986,115.38589409999986,115.38559566666687,115.50234889999956,117.39133559999937,117.39133559999937,118.08595760000026,a,1,2.683169599999019,None,P5,001,2025-11-23_18h52.48.581,Final Solo Project Psy310,,2025.1.1,60.01028576314349,2025-11-23 18h52.57.969224 +0530,
Face_file/Anger.jpg,Sound_file/Sad.wav,Anger,Sad,I,s,16,7,1,s,1,1.876309700001002,None,1,7,16,7,118.10966200000075,,,,,,,,118.10773549999976,118.10966200000075,118.58555139999953,118.58555139999953,118.58539616666737,118.61896309999975,,,120.46946500000013,s,1,1.876309700001002,None,P5,001,2025-11-23_18h52.48.581,Final Solo Project Psy310,,2025.1.1,60.01028576314349,2025-11-23 18h52.57.969224 +0530,
Face_file/Sad.jpg,Sound_file/Sad.wav,Sad,Sad,C,s,17,8,1,s,1,2.014395100000911,None,1,8,17,2,120.49851769999987,,,,,,,,120.49563769999986,120.49851769999987,120.98545340000055,120.98545340000055,120.98536746666674,121.00210289999995,122.98512010000013,122.98512010000013,123.00226450000082,s,1,2.014395100000911,None,P5,001,2025-11-23_18h52.48.581,Final Solo Project Psy310,,2025.1.1,60.01028576314349,2025-11-23 18h52.57.969224 +0530,
Face_file/Happy.jpg,Sound_file/Anger.wav,Happy,Anger,I,a,18,0,2,a,1,1.4383232000000135,None,2,0,18,3,123.19960809999975,,,,,,,,123.19095460000062,123.19960809999975,123.50243489999957,123.50243489999957,123.50178066666764,123.70236610000029,,,124.95301800000016,a,1,1.4383232000000135,None,P5,001,2025-11-23_18h52.48.581,Final Solo Project Psy310,,2025.1.1,60.01028576314349,2025-11-23 18h52.57.969224 +0530,
Face_file/Anger.jpg,Sound_file/Sad.wav,Anger,Sad,I,s,19,1,2,s,1,2.575082299999849,None,2,1,19,7,124.99601000000075,,,,,,,,124.98505900000055,124.99601000000075,125.46852620000027,125.46852620000027,125.46820256666639,125.50166539999918,127.46821420000015,127.46821420000015,128.05202549999922,s,1,2.575082299999849,None,P5,001,2025-11-23_18h52.48.581,Final Solo Project Psy310,,2025.1.1,60.01028576314349,2025-11-23 18h52.57.969224 +0530,
Face_file/Sad.jpg,Sound_file/Anger.wav,Sad,Anger,I,a,20,2,2,a,1,1.4096340999985841,None,2,2,20,4,128.1680792999996,,,,,,,,128.16474689999995,128.1680792999996,128.55124670000077,128.55124670000077,128.55146796666693,128.66843100000006,,,129.96903700000075,a,1,1.4096340999985841,None,P5,001,2025-11-23_18h52.48.581,Final Solo Project Psy310,,2025.1.1,60.01028576314349,2025-11-23 18h52.57.969224 +0530,
Face_file/Happy.jpg,Sound_file/Sad.wav,Happy,Sad,I,s,21,3,2,s,1,1.9421388000009756,None,2,3,21,8,130.09182499999952,,,,,,,,130.08304540000063,130.09182499999952,130.48533769999995,130.48533769999995,130.48465866666655,130.60185450000063,,,132.43576969999958,s,1,1.9421388000009756,None,P5,001,2025-11-23_18h52.48.581,Final Solo Project Psy310,,2025.1.1,60.01028576314349,2025-11-23 18h52.57.969224 +0530,
Face_file/Anger.jpg,Sound_file/Anger.wav,Anger,Anger,C,a,22,4,2,a,1,1.8640068999993673,None,2,4,22,0,132.58623839999927,,,,,,,,132.57497820000026,132.58623839999927,132.95122260000062,132.95122260000062,132.95103656666677,133.10141660000045,,,134.81854910000038,a,1,1.8640068999993673,None,P5,001,2025-11-23_18h52.48.581,Final Solo Project Psy310,,2025.1.1,60.01028576314349,2025-11-23 18h52.57.969224 +0530,
Face_file/Happy.jpg,Sound_file/Happy.wav,Happy,Happy,C,h,23,5,2,h,1,2.7681596000002173,None,2,5,23,1,134.96044660000007,,,,,,,,134.95163879999927,134.96044660000007,135.33498990000044,135.33498990000044,135.33432306666717,135.46851919999972,137.34051759999966,137.34051759999966,138.11794379999992,h,1,2.7681596000002173,None,P5,001,2025-11-23_18h52.48.581,Final Solo Project Psy310,,2025.1.1,60.01028576314349,2025-11-23 18h52.57.969224 +0530,
Face_file/Sad.jpg,Sound_file/Sad.wav,Sad,Sad,C,s,24,6,2,h,0,5.68680090000089,None,2,6,24,2,138.14347409999937,,,,,,,,138.1327648000006,138.14347409999937,138.61758109999937,138.61758109999937,138.61763296666712,138.6510445999993,140.61690699999963,140.61690699999963,144.3204667000009,h,0,5.68680090000089,None,P5,001,2025-11-23_18h52.48.581,Final Solo Project Psy310,,2025.1.1,60.01028576314349,2025-11-23 18h52.57.969224 +0530,
Face_file/Sad.jpg,Sound_file/Happy.wav,Sad,Happy,I,h,25,7,2,h,1,1.430970299999899,None,2,7,25,6,144.35321610000028,,,,,,,,144.35058369999933,144.35321610000028,144.82011899999998,144.82011899999998,144.82058866666765,144.85317360000045,,,146.26786250000077,h,1,1.430970299999899,None,P5,001,2025-11-23_18h52.48.581,Final Solo Project Psy310,,2025.1.1,60.01028576314349,2025-11-23 18h52.57.969224 +0530,
Face_file/Anger.jpg,Sound_file/Happy.wav,Anger,Happy,I,h,26,8,2,h,1,1.119093299999804,None,2,8,26,5,146.31347549999919,,,,,,,,146.3109244999996,146.31347549999919,146.7836126000002,146.7836126000002,146.78378726666622,146.81715190000068,,,147.91771560000052,h,1,1.119093299999804,None,P5,001,2025-11-23_18h52.48.581,Final Solo Project Psy310,,2025.1.1,60.01028576314349,2025-11-23 18h52.57.969224 +0530,
Face_file/Sad.jpg,Sound_file/Sad.wav,Sad,Sad,C,s,27,0,3,s,1,2.296770499999184,None,3,0,27,2,147.94880430000012,,,,,,,,147.9459695000005,147.94880430000012,148.43378440000015,148.43378440000015,148.43359846666706,148.45044199999938,150.43377220000002,150.43377220000002,150.73387840000032,s,1,2.296770499999184,None,P5,001,2025-11-23_18h52.48.581,Final Solo Project Psy310,,2025.1.1,60.01028576314349,2025-11-23 18h52.57.969224 +0530,
Face_file/Anger.jpg,Sound_file/Anger.wav,Anger,Anger,C,a,28,1,3,a,1,1.1236516000008123,None,3,1,28,0,150.85879039999963,,,,,,,,150.8560020999994,150.85879039999963,151.23344250000082,151.23344250000082,151.23336776666682,151.36691559999963,,,152.36742389999927,a,1,1.1236516000008123,None,P5,001,2025-11-23_18h52.48.581,Final Solo Project Psy310,,2025.1.1,60.01028576314349,2025-11-23 18h52.57.969224 +0530,
Face_file/Sad.jpg,Sound_file/Happy.wav,Sad,Happy,I,h,29,2,3,h,1,1.691353700000036,None,3,2,29,6,152.41058499999963,,,,,,,,152.40770399999928,152.41058499999963,152.88337769999998,152.88337769999998,152.88326066666767,152.91666970000006,,,154.58404350000092,h,1,1.691353700000036,None,P5,001,2025-11-23_18h52.48.581,Final Solo Project Psy310,,2025.1.1,60.01028576314349,2025-11-23 18h52.57.969224 +0530,
Face_file/Anger.jpg,Sound_file/Happy.wav,Anger,Happy,I,h,30,3,3,h,1,0.8641508999990037,None,3,3,30,5,154.64037169999938,,,,,,,,154.63740359999974,154.64037169999938,155.11684120000064,155.11684120000064,155.1163639666668,155.15013499999986,,,155.98386449999998,h,1,0.8641508999990037,None,P5,001,2025-11-23_18h52.48.581,Final Solo Project Psy310,,2025.1.1,60.01028576314349,2025-11-23 18h52.57.969224 +0530,
Face_file/Anger.jpg,Sound_file/Sad.wav,Anger,Sad,I,s,31,4,3,s,1,3.0120876000000862,None,3,4,31,7,156.02557709999928,,,,,,,,156.0234433000005,156.02557709999928,156.51667819999966,156.51667819999966,156.5163014666671,156.5333711000003,158.51643019999938,158.51643019999938,159.53346349999993,s,1,3.0120876000000862,None,P5,001,2025-11-23_18h52.48.581,Final Solo Project Psy310,,2025.1.1,60.01028576314349,2025-11-23 18h52.57.969224 +0530,
Face_file/Sad.jpg,Sound_file/Anger.wav,Sad,Anger,I,a,32,5,3,a,1,1.8236430999986624,None,3,5,32,4,159.64462599999933,,,,,,,,159.64156259999982,159.64462599999933,160.03304910000043,160.03304910000043,160.03305326666694,160.1497765999993,,,161.867027100001,a,1,1.8236430999986624,None,P5,001,2025-11-23_18h52.48.581,Final Solo Project Psy310,,2025.1.1,60.01028576314349,2025-11-23 18h52.57.969224 +0530,
Face_file/Happy.jpg,Sound_file/Happy.wav,Happy,Happy,C,h,33,6,3,h,1,1.2144138000003295,None,3,6,33,1,162.06333210000048,,,,,,,,162.05518850000044,162.06333210000048,162.3834896999997,162.3834896999997,162.38291686666733,162.5667336000006,,,163.60080480000033,h,1,1.2144138000003295,None,P5,001,2025-11-23_18h52.48.581,Final Solo Project Psy310,,2025.1.1,60.01028576314349,2025-11-23 18h52.57.969224 +0530,
Face_file/Happy.jpg,Sound_file/Sad.wav,Happy,Sad,I,s,34,7,3,s,1,1.4232026999998197,None,3,7,34,8,163.7300954000002,,,,,,,,163.72080800000003,163.7300954000002,164.11673960000007,164.11673960000007,164.11598016666747,164.23328039999979,,,165.5506588999997,s,1,1.4232026999998197,None,P5,001,2025-11-23_18h52.48.581,Final Solo Project Psy310,,2025.1.1,60.01028576314349,2025-11-23 18h52.57.969224 +0530,
Face_file/Happy.jpg,Sound_file/Anger.wav,Happy,Anger,I,a,35,8,3,a,1,1.8555582999997569,None,3,8,35,3,165.75474190000023,,,,,,,,165.74632290000045,165.75474190000023,166.06662850000066,166.06662850000066,166.06598566666642,166.2666078000002,,,167.93392909999966,a,1,1.8555582999997569,None,P5,001,2025-11-23_18h52.48.581,Final Solo Project Psy310,,2025.1.1,60.01028576314349,2025-11-23 18h52.57.969224 +0530,
Face_file/Sad.jpg,Sound_file/Anger.wav,Sad,Anger,I,a,36,0,4,a,1,1.9036077999990084,None,4,0,36,4,168.07883089999996,,,,,,,,168.06652480000048,168.07883089999996,168.46596429999954,168.46596429999954,168.46601216666593,168.5826433000002,,,170.3831166,a,1,1.9036077999990084,None,P5,001,2025-11-23_18h52.48.581,Final Solo Project Psy310,,2025.1.1,60.01028576314349,2025-11-23 18h52.57.969224 +0530,
Face_file/Sad.jpg,Sound_file/Sad.wav,Sad,Sad,C,s,37,1,4,s,1,1.5878632000003563,None,4,1,37,2,170.41001830000096,,,,,,,,170.40784949999943,170.41001830000096,170.89912240000012,170.89912240000012,170.8990197666665,170.9156067999993,,,172.49962070000038,s,1,1.5878632000003563,None,P5,001,2025-11-23_18h52.48.581,Final Solo Project Psy310,,2025.1.1,60.01028576314349,2025-11-23 18h52.57.969224 +0530,
Face_file/Happy.jpg,Sound_file/Happy.wav,Happy,Happy,C,h,38,2,4,h,1,1.0518718999992416,None,4,2,38,1,172.6382233000004,,,,,,,,172.62930360000064,172.6382233000004,173.016206100001,173.016206100001,173.01544816666708,173.1495221999994,,,174.08350470000005,h,1,1.0518718999992416,None,P5,001,2025-11-23_18h52.48.581,Final Solo Project Psy310,,2025.1.1,60.01028576314349,2025-11-23 18h52.57.969224 +0530,
Face_file/Sad.jpg,Sound_file/Happy.wav,Sad,Happy,I,h,39,3,4,h,1,3.688441000000239,None,4,3,39,6,174.13377089999994,,,,,,,,174.1213745999994,174.13377089999994,174.5987855000003,174.5987855000003,174.59873496666685,174.64896520000002,176.6026698000005,176.6026698000005,178.29883940000036,h,1,3.688441000000239,None,P5,001,2025-11-23_18h52.48.581,Final Solo Project Psy310,,2025.1.1,60.01028576314349,2025-11-23 18h52.57.969224 +0530,
Face_file/Anger.jpg,Sound_file/Anger.wav,Anger,Anger,C,a,40,4,4,a,1,2.551624300000185,None,4,4,40,0,178.4193680999997,,,,,,,,178.4164880999997,178.4193680999997,178.79875879999963,178.79875879999963,178.79846426666725,178.93183060000047,180.80145520000042,180.80145520000042,181.36545789999946,a,1,2.551624300000185,None,P5,001,2025-11-23_18h52.48.581,Final Solo Project Psy310,,2025.1.1,60.01028576314349,2025-11-23 18h52.57.969224 +0530,
Face_file/Happy.jpg,Sound_file/Anger.wav,Happy,Anger,I,a,41,5,4,a,1,1.5318215999996028,None,4,5,41,3,181.59110060000057,,,,,,,,181.58184269999947,181.59110060000057,181.86562240000057,181.86562240000057,181.86505906666596,182.0988455000006,,,183.3995218,a,1,1.5318215999996028,None,P5,001,2025-11-23_18h52.48.581,Final Solo Project Psy310,,2025.1.1,60.01028576314349,2025-11-23 18h52.57.969224 +0530,
Face_file/Anger.jpg,Sound_file/Happy.wav,Anger,Happy,I,h,42,6,4,h,1,1.8535076999996818,None,4,6,42,5,183.46268699999928,,,,,,,,183.45143699999971,183.46268699999928,183.93157600000086,183.93157600000086,183.93149696666686,183.9649002999995,,,185.7990475000006,h,1,1.8535076999996818,None,P5,001,2025-11-23_18h52.48.581,Final Solo Project Psy310,,2025.1.1,60.01028576314349,2025-11-23 18h52.57.969224 +0530,
Face_file/Anger.jpg,Sound_file/Sad.wav,Anger,Sad,I,s,43,7,4,s,1,3.349772000001394,None,4,7,43,7,185.83425010000065,,,,,,,,185.83191409999927,185.83425010000065,186.31491900000037,186.31491900000037,186.31475556666763,186.34834740000042,188.3227621999995,188.3227621999995,189.66870980000022,s,1,3.349772000001394,None,P5,001,2025-11-23_18h52.48.581,Final Solo Project Psy310,,2025.1.1,60.01028576314349,2025-11-23 18h52.57.969224 +0530,
Face_file/Happy.jpg,Sound_file/Sad.wav,Happy,Sad,I,s,44,8,4,s,1,1.5306105999989086,None,4,8,44,8,189.78708709999955,,,,,,,,189.7769788000005,189.78708709999955,190.18596120000075,190.18596120000075,190.19025166666714,190.29848870000023,,,191.73238149999997,s,1,1.5306105999989086,None,P5,001,2025-11-23_18h52.48.581,Final Solo Project Psy310,,2025.1.1,60.01028576314349,2025-11-23 18h52.57.969224 +0530,
Face_file/Happy.jpg,Sound_file/Happy.wav,Happy,Happy,C,h,45,0,5,h,1,2.4310817000005045,None,5,0,45,1,191.8732411000001,,,,,,,,191.86538549999932,191.8732411000001,192.24837579999985,192.24837579999985,192.24769226666675,192.38163499999973,194.24765389999993,194.24765389999993,194.68112680000013,h,1,2.4310817000005045,None,P5,001,2025-11-23_18h52.48.581,Final Solo Project Psy310,,2025.1.1,60.01028576314349,2025-11-23 18h52.57.969224 +0530,
Face_file/Sad.jpg,Sound_file/Anger.wav,Sad,Anger,I,a,46,1,5,a,1,1.42508430000089,None,5,1,46,4,194.80828420000034,,,,,,,,194.79718329999923,194.80828420000034,195.1808930999996,195.1808930999996,195.18088496666704,195.3142573999994,,,196.61487940000006,a,1,1.42508430000089,None,P5,001,2025-11-23_18h52.48.581,Final Solo Project Psy310,,2025.1.1,60.01028576314349,2025-11-23 18h52.57.969224 +0530,
Face_file/Anger.jpg,Sound_file/Sad.wav,Anger,Sad,I,s,47,2,5,s,1,2.062195900000006,None,5,2,47,7,196.6532767000008,,,,,,,,196.65054939999936,196.6532767000008,197.1306936000001,197.1306936000001,197.1306936666663,197.16420649999964,199.1333835000005,199.1333835000005,199.19776699999966,s,1,2.062195900000006,None,P5,001,2025-11-23_18h52.48.581,Final Solo Project Psy310,,2025.1.1,60.01028576314349,2025-11-23 18h52.57.969224 +0530,
Face_file/Happy.jpg,Sound_file/Sad.wav,Happy,Sad,I,s,48,3,5,s,1,1.3504640999999538,None,5,3,48,8,199.31947349999973,,,,,,,,199.3102254000005,199.31947349999973,199.71421960000043,199.71421960000043,199.71351756666652,199.83100419999937,,,201.08158770000045,s,1,1.3504640999999538,None,P5,001,2025-11-23_18h52.48.581,Final Solo Project Psy310,,2025.1.1,60.01028576314349,2025-11-23 18h52.57.969224 +0530,
Face_file/Happy.jpg,Sound_file/Anger.wav,Happy,Anger,I,a,49,4,5,a,1,1.358893700000408,None,5,4,49,3,201.3095290000001,,,,,,,,201.3013919999994,201.3095290000001,201.59772909999992,201.59772909999992,201.59690306666587,201.8143541999998,,,202.9643188000009,a,1,1.358893700000408,None,P5,001,2025-11-23_18h52.48.581,Final Solo Project Psy310,,2025.1.1,60.01028576314349,2025-11-23 18h52.57.969224 +0530,
Face_file/Anger.jpg,Sound_file/Anger.wav,Anger,Anger,C,a,50,5,5,a,1,1.5588335000011284,None,5,5,50,0,203.11473149999983,,,,,,,,203.10304800000085,203.11473149999983,203.48038459999952,203.48038459999952,203.48026966666683,203.61372690000098,,,205.04790130000038,a,1,1.5588335000011284,None,P5,001,2025-11-23_18h52.48.581,Final Solo Project Psy310,,2025.1.1,60.01028576314349,2025-11-23 18h52.57.969224 +0530,
Face_file/Anger.jpg,Sound_file/Happy.wav,Anger,Happy,I,h,51,6,5,h,1,1.0117859999991197,None,5,6,51,5,205.0947269999997,,,,,,,,205.0925040000002,205.0947269999997,205.56372179999926,205.56372179999926,205.56350336666608,205.59705120000035,,,206.5808130000005,h,1,1.0117859999991197,None,P5,001,2025-11-23_18h52.48.581,Final Solo Project Psy310,,2025.1.1,60.01028576314349,2025-11-23 18h52.57.969224 +0530,
Face_file/Sad.jpg,Sound_file/Happy.wav,Sad,Happy,I,h,52,7,5,h,1,0.9134137000000919,None,5,7,52,6,206.62694190000002,,,,,,,,206.62403070000073,206.62694190000002,207.11367969999992,207.11367969999992,207.11340646666602,207.13019359999998,,,208.03063739999925,h,1,0.9134137000000919,None,P5,001,2025-11-23_18h52.48.581,Final Solo Project Psy310,,2025.1.1,60.01028576314349,2025-11-23 18h52.57.969224 +0530,
Face_file/Sad.jpg,Sound_file/Sad.wav,Sad,Sad,C,s,53,8,5,s,1,2.0412890000006882,None,5,8,53,2,208.06402850000086,,,,,,,,208.06147950000013,208.06402850000086,208.56365000000005,208.56365000000005,208.56325016666622,208.56365000000005,210.56300270000065,210.56300270000065,210.61381959999926,s,1,2.0412890000006882,None,P5,001,2025-11-23_18h52.48.581,Final Solo Project Psy310,,2025.1.1,60.01028576314349,2025-11-23 18h52.57.969224 +0530,
Face_file/Sad.jpg,Sound_file/Anger.wav,Sad,Anger,I,a,54,0,6,a,1,1.213644600000407,None,6,0,54,4,210.72426599999926,,,,,,,,210.72215250000045,210.72426599999926,211.11317840000083,211.11317840000083,211.11330066666622,211.2298996999998,,,212.3307464999998,a,1,1.213644600000407,None,P5,001,2025-11-23_18h52.48.581,Final Solo Project Psy310,,2025.1.1,60.01028576314349,2025-11-23 18h52.57.969224 +0530,
Face_file/Sad.jpg,Sound_file/Happy.wav,Sad,Happy,I,h,55,1,6,h,1,0.8161087999997108,None,6,1,55,6,212.3672203999995,,,,,,,,212.36520700000074,212.3672203999995,212.84665630000018,212.84665630000018,212.8463735666667,212.87977619999947,,,213.66362060000029,h,1,0.8161087999997108,None,P5,001,2025-11-23_18h52.48.581,Final Solo Project Psy310,,2025.1.1,60.01028576314349,2025-11-23 18h52.57.969224 +0530,
Face_file/Happy.jpg,Sound_file/Happy.wav,Happy,Happy,C,h,56,2,6,h,1,1.487657899999249,None,6,2,56,1,213.80457989999923,,,,,,,,213.79633289999947,213.80457989999923,214.1970970000002,214.1970970000002,214.19632846666744,214.31368760000078,,,215.69784939999954,h,1,1.487657899999249,None,P5,001,2025-11-23_18h52.48.581,Final Solo Project Psy310,,2025.1.1,60.01028576314349,2025-11-23 18h52.57.969224 +0530,
Face_file/Anger.jpg,Sound_file/Sad.wav,Anger,Sad,I,s,57,3,6,s,1,1.9993142999992415,None,6,3,57,7,215.74472500000047,,,,,,,,215.73389950000092,215.74472500000047,216.21287850000044,216.21287850000044,216.21282746666682,216.2465513999996,218.2160941000002,218.2160941000002,218.21636039999976,s,1,1.9993142999992415,None,P5,001,2025-11-23_18h52.48.581,Final Solo Project Psy310,,2025.1.1,60.01028576314349,2025-11-23 18h52.57.969224 +0530,
Face_file/Happy.jpg,Sound_file/Sad.wav,Happy,Sad,I,s,58,4,6,s,1,0.8587020000013581,None,6,4,58,8,218.33681199999955,,,,,,,,218.32854430000043,218.33681199999955,218.73024670000086,218.73024670000086,218.72931886666655,218.8468183999994,,,219.59736449999946,s,1,0.8587020000013581,None,P5,001,2025-11-23_18h52.48.581,Final Solo Project Psy310,,2025.1.1,60.01028576314349,2025-11-23 18h52.57.969224 +0530,
Face_file/Anger.jpg,Sound_file/Happy.wav,Anger,Happy,I,h,59,5,6,h,1,3.1697069000001648,None,6,5,59,5,219.65538299999935,,,,,,,,219.64443410000058,219.65538299999935,220.11270949999926,220.11270949999926,220.1127566666676,220.16291679999995,222.1123590999996,222.1123590999996,223.29610479999974,h,1,3.1697069000001648,None,P5,001,2025-11-23_18h52.48.581,Final Solo Project Psy310,,2025.1.1,60.01028576314349,2025-11-23 18h52.57.969224 +0530,
Face_file/Sad.jpg,Sound_file/Sad.wav,Sad,Sad,C,s,60,6,6,s,1,2.169949600000109,None,6,6,60,2,223.31541540000035,,,,,,,,223.3123981000008,223.31541540000035,223.7959305000004,223.7959305000004,223.79592296666695,223.82935240000006,225.79544429999987,225.79544429999987,225.97974040000008,s,1,2.169949600000109,None,P5,001,2025-11-23_18h52.48.581,Final Solo Project Psy310,,2025.1.1,60.01028576314349,2025-11-23 18h52.57.969224 +0530,
Face_file/Anger.jpg,Sound_file/Anger.wav,Anger,Anger,C,a,61,7,6,a,1,1.458377399998426,None,6,7,61,0,226.09928559999935,,,,,,,,226.09635479999997,226.09928559999935,226.47925620000024,226.47925620000024,226.478877466667,226.61252349999995,,,227.94637689999945,a,1,1.458377399998426,None,P5,001,2025-11-23_18h52.48.581,Final Solo Project Psy310,,2025.1.1,60.01028576314349,2025-11-23 18h52.57.969224 +0530,
Face_file/Happy.jpg,Sound_file/Anger.wav,Happy,Anger,I,a,62,8,6,a,1,1.4618704999993497,None,6,8,62,3,228.1604537000003,,,,,,,,228.15144669999972,228.1604537000003,228.46273540000038,228.46273540000038,228.46208746666733,228.6629138999997,,,229.9299991000007,a,1,1.4618704999993497,None,P5,001,2025-11-23_18h52.48.581,Final Solo Project Psy310,,2025.1.1,60.01028576314349,2025-11-23 18h52.57.969224 +0530,
Face_file/Happy.jpg,Sound_file/Anger.wav,Happy,Anger,I,a,63,0,7,a,1,1.3268213999999716,None,7,0,63,3,230.14984200000072,,,,,,,,230.141570400001,230.14984200000072,230.44612360000065,230.44612360000065,230.44546676666712,230.6626914999997,,,231.77984730000026,a,1,1.3268213999999716,None,P5,001,2025-11-23_18h52.48.581,Final Solo Project Psy310,,2025.1.1,60.01028576314349,2025-11-23 18h52.57.969224 +0530,
Face_file/Anger.jpg,Sound_file/Sad.wav,Anger,Sad,I,s,64,1,7,s,1,2.908615299998928,None,7,1,64,7,231.83581779999986,,,,,,,,231.82517879999978,231.83581779999986,232.31210219999957,232.31210219999957,232.3118076666672,232.3455281000006,234.31259110000065,234.31259110000065,235.2288453000001,s,1,2.908615299998928,None,P5,001,2025-11-23_18h52.48.581,Final Solo Project Psy310,,2025.1.1,60.01028576314349,2025-11-23 18h52.57.969224 +0530,
Face_file/Anger.jpg,Sound_file/Anger.wav,Anger,Anger,C,a,65,2,7,a,1,1.3290567999993073,None,7,2,65,0,235.34519960000034,,,,,,,,235.3428082999999,235.34519960000034,235.72845489999963,235.72845489999963,235.72838856666593,235.84515869999996,,,237.06233769999926,a,1,1.3290567999993073,None,P5,001,2025-11-23_18h52.48.581,Final Solo Project Psy310,,2025.1.1,60.01028576314349,2025-11-23 18h52.57.969224 +0530,
Face_file/Happy.jpg,Sound_file/Sad.wav,Happy,Sad,I,s,66,3,7,s,1,1.6738654999990104,None,7,3,66,8,237.18870360000074,,,,,,,,237.17997990000003,237.18870360000074,237.59558959999958,237.59558959999958,237.59514146666723,237.69548700000087,,,239.27977789999932,s,1,1.6738654999990104,None,P5,001,2025-11-23_18h52.48.581,Final Solo Project Psy310,,2025.1.1,60.01028576314349,2025-11-23 18h52.57.969224 +0530,
Face_file/Sad.jpg,Sound_file/Anger.wav,Sad,Anger,I,a,67,4,7,a,1,1.4370171999999002,None,7,4,67,4,239.41464280000037,,,,,,,,239.40253889999985,239.41464280000037,239.79499709999982,239.79499709999982,239.79494246666607,239.92840889999934,,,241.2455456000007,a,1,1.4370171999999002,None,P5,001,2025-11-23_18h52.48.581,Final Solo Project Psy310,,2025.1.1,60.01028576314349,2025-11-23 18h52.57.969224 +0530,
Face_file/Sad.jpg,Sound_file/Sad.wav,Sad,Sad,C,s,68,5,7,a,0,2.0594856000006985,None,7,5,68,2,241.27565630000026,,,,,,,,241.27349460000005,241.27565630000026,241.76164880000033,241.76164880000033,241.7614401666672,241.77833370000008,243.76484230000096,243.76484230000096,243.82832559999952,a,0,2.0594856000006985,None,P5,001,2025-11-23_18h52.48.581,Final Solo Project Psy310,,2025.1.1,60.01028576314349,2025-11-23 18h52.57.969224 +0530,
Face_file/Happy.jpg,Sound_file/Happy.wav,Happy,Happy,C,h,69,6,7,h,1,1.5236155000002327,None,7,6,69,1,243.95394859999942,,,,,,,,243.9450672999992,243.95394859999942,244.3284595999994,244.3284595999994,244.32798816666607,244.46191100000033,,,245.86224109999966,h,1,1.5236155000002327,None,P5,001,2025-11-23_18h52.48.581,Final Solo Project Psy310,,2025.1.1,60.01028576314349,2025-11-23 18h52.57.969224 +0530,
Face_file/Anger.jpg,Sound_file/Happy.wav,Anger,Happy,I,h,70,7,7,h,1,1.309380799999417,None,7,7,70,5,245.9231419000007,,,,,,,,245.9123294000001,245.9231419000007,246.39451569999983,246.39451569999983,246.39446496666667,246.42788640000072,,,247.71177759999955,h,1,1.309380799999417,None,P5,001,2025-11-23_18h52.48.581,Final Solo Project Psy310,,2025.1.1,60.01028576314349,2025-11-23 18h52.57.969224 +0530,
Face_file/Sad.jpg,Sound_file/Happy.wav,Sad,Happy,I,h,71,8,7,h,1,0.8224198999996588,None,7,8,71,6,247.74842809999973,,,,,,,,247.74535690000084,247.74842809999973,248.22790010000062,248.22790010000062,248.22765926666605,248.2610977000004,,,249.0616430000009,h,1,0.8224198999996588,None,P5,001,2025-11-23_18h52.48.581,Final Solo Project Psy310,,2025.1.1,60.01028576314349,2025-11-23 18h52.57.969224 +0530,
Face_file/Anger.jpg,Sound_file/Happy.wav,Anger,Happy,I,h,72,0,8,h,1,0.9590623000003689,None,8,0,72,5,249.1055524000003,,,,,,,,249.10287029999927,249.1055524000003,249.57761740000024,249.57761740000024,249.57761786666768,249.6110437999996,,,250.54487230000086,h,1,0.9590623000003689,None,P5,001,2025-11-23_18h52.48.581,Final Solo Project Psy310,,2025.1.1,60.01028576314349,2025-11-23 18h52.57.969224 +0530,
Face_file/Happy.jpg,Sound_file/Sad.wav,Happy,Sad,I,s,73,1,8,s,1,1.5610010999989754,None,8,1,73,8,250.66514359999928,,,,,,,,250.65629199999967,250.66514359999928,251.07826600000044,251.07826600000044,251.07734776666646,251.17805439999938,,,252.64529310000034,s,1,1.5610010999989754,None,P5,001,2025-11-23_18h52.48.581,Final Solo Project Psy310,,2025.1.1,60.01028576314349,2025-11-23 18h52.57.969224 +0530,
Face_file/Sad.jpg,Sound_file/Happy.wav,Sad,Happy,I,h,74,2,8,h,1,1.29533789999914,None,8,2,74,6,252.69507770000018,,,,,,,,252.6844703000006,252.69507770000018,253.1607530000001,253.1607530000001,253.16048886666638,253.1941626000007,,,254.46143719999964,h,1,1.29533789999914,None,P5,001,2025-11-23_18h52.48.581,Final Solo Project Psy310,,2025.1.1,60.01028576314349,2025-11-23 18h52.57.969224 +0530,
Face_file/Happy.jpg,Sound_file/Anger.wav,Happy,Anger,I,a,75,3,8,a,1,1.971404399999301,None,8,3,75,3,254.69367489999968,,,,,,,,254.6853026000008,254.69367489999968,254.97787570000037,254.97787570000037,254.97726656666626,255.1944970000004,257.1011952000008,257.1011952000008,256.97945830000026,a,1,1.971404399999301,None,P5,001,2025-11-23_18h52.48.581,Final Solo Project Psy310,,2025.1.1,60.01028576314349,2025-11-23 18h52.57.969224 +0530,
Face_file/Happy.jpg,Sound_file/Happy.wav,Happy,Happy,C,h,76,4,8,h,1,2.0169422999988456,None,8,4,76,1,257.1011952000008,,,,,,,,257.0934474000005,257.1011952000008,257.4944780000005,257.4944780000005,257.49378166666634,257.6109565000006,259.49396979999983,259.49396979999983,259.52752490000057,h,1,2.0169422999988456,None,P5,001,2025-11-23_18h52.48.581,Final Solo Project Psy310,,2025.1.1,60.01028576314349,2025-11-23 18h52.57.969224 +0530,
Face_file/Anger.jpg,Sound_file/Anger.wav,Anger,Anger,C,a,77,5,8,a,1,3.2140054999999847,None,8,5,77,0,259.6583943000005,,,,,,,,259.64714099999946,259.6583943000005,260.02709460000005,260.02709460000005,260.0268448666668,260.1603166999994,262.0267641999999,262.0267641999999,263.24390250000033,a,1,3.2140054999999847,None,P5,001,2025-11-23_18h52.48.581,Final Solo Project Psy310,,2025.1.1,60.01028576314349,2025-11-23 18h52.57.969224 +0530,
Face_file/Anger.jpg,Sound_file/Sad.wav,Anger,Sad,I,s,78,6,8,s,1,3.5168066999995062,None,8,6,78,7,263.26684879999993,,,,,,,,263.2645718999993,263.26684879999993,263.74349509999956,263.74349509999956,263.7449138666673,263.7769322000004,265.76509629999964,265.7432360999992,267.2770920999992,s,1,3.5168066999995062,None,P5,001,2025-11-23_18h52.48.581,Final Solo Project Psy310,,2025.1.1,60.01028576314349,2025-11-23 18h52.57.969224 +0530,
Face_file/Sad.jpg,Sound_file/Sad.wav,Sad,Sad,C,s,79,7,8,s,1,2.2266271999997116,None,8,7,79,2,267.29437569999936,,,,,,,,267.2915137,267.29437569999936,267.7766756000001,267.7766756000001,267.77639076666696,267.8102192999995,269.77645029999985,269.77645029999985,270.0100182999995,s,1,2.2266271999997116,None,P5,001,2025-11-23_18h52.48.581,Final Solo Project Psy310,,2025.1.1,60.01028576314349,2025-11-23 18h52.57.969224 +0530,
Face_file/Sad.jpg,Sound_file/Anger.wav,Sad,Anger,I,a,80,8,8,a,1,1.630994400000418,None,8,8,80,4,270.1173796999992,,,,,,,,270.1152903000002,270.1173796999992,270.5101049999994,270.5101049999994,270.50965736666717,270.62659110000095,,,272.1434919000003,a,1,1.630994400000418,None,P5,001,2025-11-23_18h52.48.581,Final Solo Project Psy310,,2025.1.1,60.01028576314349,2025-11-23 18h52.57.969224 +0530,
Face_file/Sad.jpg,Sound_file/Happy.wav,Sad,Happy,I,h,81,0,9,h,1,1.117270599999756,None,9,0,81,6,272.1902444999996,,,,,,,,272.18787540000085,272.1902444999996,272.6763504999999,272.6763504999999,272.67625026666633,272.6930499000009,,,273.8105469000002,h,1,1.117270599999756,None,P5,001,2025-11-23_18h52.48.581,Final Solo Project Psy310,,2025.1.1,60.01028576314349,2025-11-23 18h52.57.969224 +0530,
Face_file/Happy.jpg,Sound_file/Anger.wav,Happy,Anger,I,a,82,1,9,a,1,1.1577747000010277,None,9,1,82,3,274.0175614,,,,,,,,274.0090983000009,274.0175614,274.3267656000007,274.3267656000007,274.3263603666676,274.52670190000026,,,275.49389390000033,a,1,1.1577747000010277,None,P5,001,2025-11-23_18h52.48.581,Final Solo Project Psy310,,2025.1.1,60.01028576314349,2025-11-23 18h52.57.969224 +0530,
Face_file/Happy.jpg,Sound_file/Sad.wav,Happy,Sad,I,s,83,2,9,s,1,1.9305306999995082,None,9,2,83,8,275.6170516000002,,,,,,,,275.60880689999976,275.6170516000002,276.0266437999999,276.0266437999999,276.0262496666676,276.1266283999994,,,277.9603941000005,s,1,1.9305306999995082,None,P5,001,2025-11-23_18h52.48.581,Final Solo Project Psy310,,2025.1.1,60.01028576314349,2025-11-23 18h52.57.969224 +0530,
Face_file/Happy.jpg,Sound_file/Happy.wav,Happy,Happy,C,h,84,3,9,h,1,1.3989634000008664,None,9,3,84,1,278.0847202999994,,,,,,,,278.07654550000007,278.0847202999994,278.4764589000006,278.4764589000006,278.47561036666616,278.59323810000024,,,279.877157500001,h,1,1.3989634000008664,None,P5,001,2025-11-23_18h52.48.581,Final Solo Project Psy310,,2025.1.1,60.01028576314349,2025-11-23 18h52.57.969224 +0530,
Face_file/Anger.jpg,Sound_file/Anger.wav,Anger,Anger,C,a,85,4,9,a,1,1.2692952999987028,None,9,4,85,0,280.0403643999998,,,,,,,,280.02914989999954,280.0403643999998,280.39240020000034,280.39240020000034,280.3925119666676,280.5425113000001,,,281.67649490000076,a,1,1.2692952999987028,None,P5,001,2025-11-23_18h52.48.581,Final Solo Project Psy310,,2025.1.1,60.01028576314349,2025-11-23 18h52.57.969224 +0530,
Face_file/Anger.jpg,Sound_file/Happy.wav,Anger,Happy,I,h,86,5,9,h,1,1.0357946000003722,None,9,5,86,5,281.72802969999975,,,,,,,,281.7258898,281.72802969999975,282.19249579999996,282.19249579999996,282.1923787666676,282.2425481999999,,,283.24305149999964,h,1,1.0357946000003722,None,P5,001,2025-11-23_18h52.48.581,Final Solo Project Psy310,,2025.1.1,60.01028576314349,2025-11-23 18h52.57.969224 +0530,
Face_file/Anger.jpg,Sound_file/Sad.wav,Anger,Sad,I,s,87,6,9,s,1,1.4221179999985907,None,9,6,87,7,283.2819417999999,,,,,,,,283.2796443999996,283.2819417999999,283.7589967999993,283.7589967999993,283.7588419666665,283.7922832000004,,,285.1928088000004,s,1,1.4221179999985907,None,P5,001,2025-11-23_18h52.48.581,Final Solo Project Psy310,,2025.1.1,60.01028576314349,2025-11-23 18h52.57.969224 +0530,
Face_file/Sad.jpg,Sound_file/Sad.wav,Sad,Sad,C,s,88,7,9,s,1,1.209324799998285,None,9,7,88,2,285.21791200000007,,,,,,,,285.2149086999998,285.21791200000007,285.7087654999996,285.7087654999996,285.7084938666669,285.7256417999997,,,286.9262510000008,s,1,1.209324799998285,None,P5,001,2025-11-23_18h52.48.581,Final Solo Project Psy310,,2025.1.1,60.01028576314349,2025-11-23 18h52.57.969224 +0530,
Face_file/Sad.jpg,Sound_file/Anger.wav,Sad,Anger,I,a,89,8,9,a,1,1.112692300001072,None,9,8,89,4,287.04642650000096,,,,,,,,287.04409320000013,287.04642650000096,287.4421634999999,287.4421634999999,287.44196336666596,287.55888290000075,,,288.5592787000005,a,1,1.112692300001072,None,P5,001,2025-11-23_18h52.48.581,Final Solo Project Psy310,,2025.1.1,60.01028576314349,2025-11-23 18h52.57.969224 +0530,
Face_file/Happy.jpg,Sound_file/Happy.wav,Happy,Happy,C,h,90,0,10,h,1,1.0988529000005656,None,10,0,90,1,288.69192909999947,,,,,,,,288.68311639999956,288.69192909999947,289.0925220000008,289.0925220000008,289.0919463666671,289.19247039999937,,,290.1932445000002,h,1,1.0988529000005656,None,P5,001,2025-11-23_18h52.48.581,Final Solo Project Psy310,,2025.1.1,60.01028576314349,2025-11-23 18h52.57.969224 +0530,
Face_file/Happy.jpg,Sound_file/Sad.wav,Happy,Sad,I,s,91,1,10,s,1,1.9454767999995966,None,10,1,91,8,290.30217059999995,,,,,,,,290.2942963000005,290.30217059999995,290.7092491000003,290.7092491000003,290.7083018666674,290.8091679999998,,,292.6594937000009,s,1,1.9454767999995966,None,P5,001,2025-11-23_18h52.48.581,Final Solo Project Psy310,,2025.1.1,60.01028576314349,2025-11-23 18h52.57.969224 +0530,
Face_file/Anger.jpg,Sound_file/Anger.wav,Anger,Anger,C,a,92,2,10,a,1,1.2161589000006643,None,10,2,92,0,292.7982914999993,,,,,,,,292.7870640000001,292.7982914999993,293.17512270000043,293.17512270000043,293.17514506666726,293.3085222999998,,,294.3925073999999,a,1,1.2161589000006643,None,P5,001,2025-11-23_18h52.48.581,Final Solo Project Psy310,,2025.1.1,60.01028576314349,2025-11-23 18h52.57.969224 +0530,
Face_file/Sad.jpg,Sound_file/Anger.wav,Sad,Anger,I,a,93,3,10,a,1,1.5205390999999508,None,10,3,93,4,294.5104955000006,,,,,,,,294.5072547,294.5104955000006,294.90843049999967,294.90843049999967,294.90809766666666,295.0250309999992,,,296.44218250000085,a,1,1.5205390999999508,None,P5,001,2025-11-23_18h52.48.581,Final Solo Project Psy310,,2025.1.1,60.01028576314349,2025-11-23 18h52.57.969224 +0530,
Face_file/Anger.jpg,Sound_file/Sad.wav,Anger,Sad,I,s,94,4,10,s,1,1.0124186999983067,None,10,4,94,7,296.47604630000023,,,,,,,,296.4732148999992,296.47604630000023,296.95844919999945,296.95844919999945,296.95805636666614,296.97495739999977,,,297.9753031,s,1,1.0124186999983067,None,P5,001,2025-11-23_18h52.48.581,Final Solo Project Psy310,,2025.1.1,60.01028576314349,2025-11-23 18h52.57.969224 +0530,
Face_file/Anger.jpg,Sound_file/Happy.wav,Anger,Happy,I,h,95,5,10,h,1,1.340904499998942,None,10,5,95,5,298.02529180000056,,,,,,,,298.02314859999933,298.02529180000056,298.5081255999994,298.5081255999994,298.50810126666715,298.5246189999998,,,299.8586445000001,h,1,1.340904499998942,None,P5,001,2025-11-23_18h52.48.581,Final Solo Project Psy310,,2025.1.1,60.01028576314349,2025-11-23 18h52.57.969224 +0530,
Face_file/Sad.jpg,Sound_file/Happy.wav,Sad,Happy,I,h,96,6,10,h,1,1.0198263000002044,None,10,6,96,6,299.90054059999966,,,,,,,,299.8975523000008,299.90054059999966,300.3745765999993,300.3745765999993,300.3744316666673,300.4078683000007,,,301.40847120000035,h,1,1.0198263000002044,None,P5,001,2025-11-23_18h52.48.581,Final Solo Project Psy310,,2025.1.1,60.01028576314349,2025-11-23 18h52.57.969224 +0530,
Face_file/Happy.jpg,Sound_file/Anger.wav,Happy,Anger,I,a,97,7,10,a,1,1.1465062000006583,None,10,7,97,3,301.61770830000023,,,,,,,,301.6093000000001,301.61770830000023,301.9252225,301.9252225,301.924404966667,302.1249296999995,,,303.07560469999953,a,1,1.1465062000006583,None,P5,001,2025-11-23_18h52.48.581,Final Solo Project Psy310,,2025.1.1,60.01028576314349,2025-11-23 18h52.57.969224 +0530,
Face_file/Sad.jpg,Sound_file/Sad.wav,Sad,Sad,C,s,98,8,10,s,1,1.5074218999998266,None,10,8,98,2,303.11555360000057,,,,,,,,303.1048116000002,303.11555360000057,303.5913113000006,303.5913113000006,303.59099536666713,303.62459769999987,,,305.1083541000007,s,1,1.5074218999998266,None,P5,001,2025-11-23_18h52.48.581,Final Solo Project Psy310,,2025.1.1,60.01028576314349,2025-11-23 18h52.57.969224 +0530,
Face_file/Happy.jpg,Sound_file/Anger.wav,Happy,Anger,I,a,99,0,11,a,1,2.232896899999105,None,11,0,99,3,305.33451609999975,,,,,,,,305.32595609999953,305.33451609999975,305.6249293000001,305.6249293000001,305.6241157666666,305.841451100001,307.6244829999996,307.6244829999996,307.8746099,a,1,2.232896899999105,None,P5,001,2025-11-23_18h52.48.581,Final Solo Project Psy310,,2025.1.1,60.01028576314349,2025-11-23 18h52.57.969224 +0530,
Face_file/Happy.jpg,Sound_file/Happy.wav,Happy,Happy,C,h,100,1,11,h,1,1.6803197999997792,None,11,1,100,1,307.9870398999992,,,,,,,,307.9793793000008,307.9870398999992,308.37478609999926,308.37478609999926,308.37394186666666,308.49140199999965,,,310.0584880000006,h,1,1.6803197999997792,None,P5,001,2025-11-23_18h52.48.581,Final Solo Project Psy310,,2025.1.1,60.01028576314349,2025-11-23 18h52.57.969224 +0530,
Face_file/Anger.jpg,Sound_file/Anger.wav,Anger,Anger,C,a,101,2,11,a,1,1.4432827999989968,None,11,2,101,0,310.1959910000005,,,,,,,,310.1848463999995,310.1959910000005,310.57407910000074,310.57407910000074,310.5740546666659,310.7074326000002,,,312.0245887000001,a,1,1.4432827999989968,None,P5,001,2025-11-23_18h52.48.581,Final Solo Project Psy310,,2025.1.1,60.01028576314349,2025-11-23 18h52.57.969224 +0530,
Face_file/Happy.jpg,Sound_file/Sad.wav,Happy,Sad,I,s,102,3,11,s,1,2.4485416999996232,None,11,3,102,8,312.15151630000037,,,,,,,,312.14265689999957,312.15151630000037,312.5575484000001,312.5575484000001,312.5569948666673,312.65777940000044,314.5569689999993,314.5569689999993,315.0072125000006,s,1,2.4485416999996232,None,P5,001,2025-11-23_18h52.48.581,Final Solo Project Psy310,,2025.1.1,60.01028576314349,2025-11-23 18h52.57.969224 +0530,
Face_file/Sad.jpg,Sound_file/Happy.wav,Sad,Happy,I,h,103,4,11,h,1,1.3869643000016367,None,11,4,103,6,315.0450572999998,,,,,,,,315.0343582000005,315.0450572999998,315.5070976999996,315.5070976999996,315.5068375666672,315.55715489999966,,,316.90751420000015,h,1,1.3869643000016367,None,P5,001,2025-11-23_18h52.48.581,Final Solo Project Psy310,,2025.1.1,60.01028576314349,2025-11-23 18h52.57.969224 +0530,
Face_file/Anger.jpg,Sound_file/Happy.wav,Anger,Happy,I,h,104,5,11,h,1,1.1167597000003298,None,11,5,104,5,316.95626470000025,,,,,,,,316.95365649999985,316.95626470000025,317.42381360000036,317.42381360000036,317.4234892666666,317.4570354999996,,,318.5576192999997,h,1,1.1167597000003298,None,P5,001,2025-11-23_18h52.48.581,Final Solo Project Psy310,,2025.1.1,60.01028576314349,2025-11-23 18h52.57.969224 +0530,
Face_file/Sad.jpg,Sound_file/Sad.wav,Sad,Sad,C,s,105,6,11,h,0,2.605530099999669,None,11,6,105,2,318.58855270000095,,,,,,,,318.5857003000001,318.58855270000095,319.0734830000001,319.0734830000001,319.0735461666666,319.0902153999996,321.0732212999992,321.0732212999992,321.6904293000007,h,0,2.605530099999669,None,P5,001,2025-11-23_18h52.48.581,Final Solo Project Psy310,,2025.1.1,60.01028576314349,2025-11-23 18h52.57.969224 +0530,
Face_file/Anger.jpg,Sound_file/Sad.wav,Anger,Sad,I,s,106,7,11,s,1,2.0921564000000217,None,11,7,106,7,321.714869200001,,,,,,,,321.71218039999985,321.714869200001,322.19022249999944,322.19022249999944,322.18993646666627,322.2232832999998,324.19391449999966,324.19391449999966,324.29014370000004,s,1,2.0921564000000217,None,P5,001,2025-11-23_18h52.48.581,Final Solo Project Psy310,,2025.1.1,60.01028576314349,2025-11-23 18h52.57.969224 +0530,
Face_file/Sad.jpg,Sound_file/Anger.wav,Sad,Anger,I,a,107,8,11,a,1,3.192073399999572,None,11,8,107,4,324.40102110000043,,,,,,,,324.3979141,324.40102110000043,324.7901872000002,324.7901872000002,324.7897232666676,324.9066758000008,326.78977979999945,326.78977979999945,327.9902767000003,a,1,3.192073399999572,None,P5,001,2025-11-23_18h52.48.581,Final Solo Project Psy310,,2025.1.1,60.01028576314349,2025-11-23 18h52.57.969224 +0530,
