reward_today,future_reward,delay,,thisN,thisTrialN,thisRepN,key_resp.keys,key_resp.rt,key_resp.duration,trials.thisRepN,trials.thisTrialN,trials.thisN,trials.thisIndex,thisRow.t,notes,trial.started,fixation.started,text.started,key_resp.started,fixation.stopped,trial.stopped,trials.key_resp.keys,trials.key_resp.rt,trials.key_resp.duration,participant,session,date,expName,expVersion,psychopyVersion,frameRate,expStart
78,80,162,1,0,0,0,l,10.5815854,None,0,0,0,6,0.0648591,,0.0630008,0.0648591,1.0108039,1.0108039,1.0774864,11.6001549,l,10.5815854,None,p1,1,2025-10-31_18h05.47.194,Delay discounting,,2025.1.1,59.96034223,2025-10-31 18h05.53.326803 +0530
11,30,7,2,1,1,0,l,1.570966,None,0,1,1,0,11.6098863,,11.6046846,11.6098863,12.6103272,12.6103272,12.6103272,14.1941009,l,1.570966,None,p1,1,2025-10-31_18h05.47.194,Delay discounting,,2025.1.1,59.96034223,2025-10-31 18h05.53.326803 +0530
40,55,62,3,2,2,0,l,1.3610998,None,0,2,2,3,14.2099667,,14.2002678,14.2099667,15.1934018,15.1934018,15.2101742,16.5602698,l,1.3610998,None,p1,1,2025-10-31_18h05.47.194,Delay discounting,,2025.1.1,59.96034223,2025-10-31 18h05.53.326803 +0530
15,35,13,4,3,3,0,t,5.6105607,None,0,3,3,1,16.5762898,,16.5648287,16.5762898,17.5598813,17.5598813,17.5764569,23.1768165,t,5.6105607,None,p1,1,2025-10-31_18h05.47.194,Delay discounting,,2025.1.1,59.96034223,2025-10-31 18h05.53.326803 +0530
49,60,89,5,4,4,0,t,1.6780864,None,0,4,4,4,23.1928169,,23.1832761,23.1928169,24.1761766,24.1761766,24.1927047,25.8599933,t,1.6780864,None,p1,1,2025-10-31_18h05.47.194,Delay discounting,,2025.1.1,59.96034223,2025-10-31 18h05.53.326803 +0530
67,75,119,6,5,5,0,t,1.5735123,None,0,5,5,5,25.8759217,,25.8649838,25.8759217,26.8594112,26.8594112,26.8760373,28.4430677,t,1.5735123,None,p1,1,2025-10-31_18h05.47.194,Delay discounting,,2025.1.1,59.96034223,2025-10-31 18h05.53.326803 +0530
27,50,21,7,6,6,0,t,1.5345837,None,0,6,6,2,28.4591179,,28.4479872,28.4591179,29.4424694,29.4424694,29.4591845,30.9930512,t,1.5345837,None,p1,1,2025-10-31_18h05.47.194,Delay discounting,,2025.1.1,59.96034223,2025-10-31 18h05.53.326803 +0530
11,30,7,8,7,0,1,l,1.7393738,None,1,0,7,0,31.0090267,,30.9980736,31.0090267,31.9925136,31.9925136,32.0091178,33.7428063,l,1.7393738,None,p1,1,2025-10-31_18h05.47.194,Delay discounting,,2025.1.1,59.96034223,2025-10-31 18h05.53.326803 +0530
49,60,89,9,8,1,1,t,0.996852,None,1,1,8,4,33.758976,,33.7477588,33.758976,34.7422858,34.7422858,34.7589365,35.7427205,t,0.996852,None,p1,1,2025-10-31_18h05.47.194,Delay discounting,,2025.1.1,59.96034223,2025-10-31 18h05.53.326803 +0530
27,50,21,10,9,2,1,t,5.0265791,None,1,2,9,2,35.7585294,,35.7468426,35.7585294,36.7422798,36.7422798,36.7587586,41.7755545,t,5.0265791,None,p1,1,2025-10-31_18h05.47.194,Delay discounting,,2025.1.1,59.96034223,2025-10-31 18h05.53.326803 +0530
78,80,162,11,10,3,1,t,2.4752427,None,1,3,10,6,41.7916698,,41.7805661,41.7916698,42.775145,42.775145,42.7916621,45.2588883,t,2.4752427,None,p1,1,2025-10-31_18h05.47.194,Delay discounting,,2025.1.1,59.96034223,2025-10-31 18h05.53.326803 +0530
67,75,119,12,11,4,1,t,1.560628,None,1,4,11,5,45.2748129,,45.2642837,45.2748129,46.2581169,46.2581169,46.2746217,47.8252233,t,1.560628,None,p1,1,2025-10-31_18h05.47.194,Delay discounting,,2025.1.1,59.96034223,2025-10-31 18h05.53.326803 +0530
40,55,62,13,12,5,1,t,0.9722645,None,1,5,12,3,47.8412633,,47.8301131,47.8412633,48.8246392,48.8246392,48.8413343,49.8084316,t,0.9722645,None,p1,1,2025-10-31_18h05.47.194,Delay discounting,,2025.1.1,59.96034223,2025-10-31 18h05.53.326803 +0530
15,35,13,14,13,6,1,l,1.1278295,None,1,6,13,1,49.824519,,49.8135887,49.824519,50.8077939,50.8077939,50.8245268,51.9417029,l,1.1278295,None,p1,1,2025-10-31_18h05.47.194,Delay discounting,,2025.1.1,59.96034223,2025-10-31 18h05.53.326803 +0530
11,30,7,15,14,0,2,l,2.1661543,None,2,0,14,0,51.9576381,,51.9469703,51.9576381,52.9411252,52.9411252,52.957759,55.1248342,l,2.1661543,None,p1,1,2025-10-31_18h05.47.194,Delay discounting,,2025.1.1,59.96034223,2025-10-31 18h05.53.326803 +0530
67,75,119,16,15,1,2,t,0.7846638,None,2,1,15,5,55.1407484,,55.1300188,55.1407484,56.1242532,56.1242532,56.1409404,56.9247265,t,0.7846638,None,p1,1,2025-10-31_18h05.47.194,Delay discounting,,2025.1.1,59.96034223,2025-10-31 18h05.53.326803 +0530
40,55,62,17,16,2,2,t,1.914385,None,2,2,16,3,56.9407547,,56.929685,56.9407547,57.9241793,57.9241793,57.940959,59.8410487,t,1.914385,None,p1,1,2025-10-31_18h05.47.194,Delay discounting,,2025.1.1,59.96034223,2025-10-31 18h05.53.326803 +0530
27,50,21,18,17,3,2,t,3.9061513,None,2,3,17,2,59.857339,,59.8470056,59.857339,60.8407101,60.8407101,60.8573522,64.7576618,t,3.9061513,None,p1,1,2025-10-31_18h05.47.194,Delay discounting,,2025.1.1,59.96034223,2025-10-31 18h05.53.326803 +0530
15,35,13,19,18,4,2,l,1.6798299,None,2,4,18,1,64.7735929,,64.7631088,64.7735929,65.7570884,65.7570884,65.7733529,67.4407424,l,1.6798299,None,p1,1,2025-10-31_18h05.47.194,Delay discounting,,2025.1.1,59.96034223,2025-10-31 18h05.53.326803 +0530
49,60,89,20,19,5,2,t,1.4851013,None,2,5,19,4,67.4565697,,67.4453237,67.4565697,68.4402898,68.4402898,68.456786,69.9406933,t,1.4851013,None,p1,1,2025-10-31_18h05.47.194,Delay discounting,,2025.1.1,59.96034223,2025-10-31 18h05.53.326803 +0530
78,80,162,21,20,6,2,t,0.8938273,None,2,6,20,6,69.9566565,,69.9445301,69.9566565,70.9401458,70.9401458,70.9568205,71.8405547,t,0.8938273,None,p1,1,2025-10-31_18h05.47.194,Delay discounting,,2025.1.1,59.96034223,2025-10-31 18h05.53.326803 +0530
67,75,119,22,21,0,3,t,1.2629892,None,3,0,21,5,71.8564505,,71.8456847,71.8564505,72.8400098,72.8400098,72.8566415,74.1071011,t,1.2629892,None,p1,1,2025-10-31_18h05.47.194,Delay discounting,,2025.1.1,59.96034223,2025-10-31 18h05.53.326803 +0530
78,80,162,23,22,1,3,t,0.75858,None,3,1,22,6,74.1230855,,74.1109385,74.1230855,75.1065874,75.1065874,75.1229528,75.8735229,t,0.75858,None,p1,1,2025-10-31_18h05.47.194,Delay discounting,,2025.1.1,59.96034223,2025-10-31 18h05.53.326803 +0530
11,30,7,24,23,2,3,l,1.2916822,None,3,2,23,0,75.8897682,,75.8791011,75.8897682,76.8730959,76.8730959,76.8897774,78.1733589,l,1.2916822,None,p1,1,2025-10-31_18h05.47.194,Delay discounting,,2025.1.1,59.96034223,2025-10-31 18h05.53.326803 +0530
27,50,21,25,24,3,3,t,2.8782493,None,3,3,24,2,78.1897245,,78.1772415,78.1897245,79.1727837,79.1727837,79.1896005,82.0565659,t,2.8782493,None,p1,1,2025-10-31_18h05.47.194,Delay discounting,,2025.1.1,59.96034223,2025-10-31 18h05.53.326803 +0530
40,55,62,26,25,4,3,l,1.0174044,None,3,4,25,3,82.0726511,,82.0622671,82.0726511,83.0560858,83.0560858,83.0726501,84.0897823,l,1.0174044,None,p1,1,2025-10-31_18h05.47.194,Delay discounting,,2025.1.1,59.96034223,2025-10-31 18h05.53.326803 +0530
49,60,89,27,26,5,3,t,10.6486352,None,3,5,26,4,84.105718,,84.0950068,84.105718,85.0890916,85.0890916,85.10584,95.7388278,t,10.6486352,None,p1,1,2025-10-31_18h05.47.194,Delay discounting,,2025.1.1,59.96034223,2025-10-31 18h05.53.326803 +0530
15,35,13,28,27,6,3,t,6.1561508,None,3,6,27,1,95.755233,,95.7444807,95.755233,96.7385975,96.7385975,96.7552584,102.9053567,t,6.1561508,None,p1,1,2025-10-31_18h05.47.194,Delay discounting,,2025.1.1,59.96034223,2025-10-31 18h05.53.326803 +0530
40,55,62,29,28,0,4,t,0.9828565,None,4,0,28,3,102.9213999,,102.9105083,102.9213999,103.9045586,103.9045586,103.9213622,104.8884245,t,0.9828565,None,p1,1,2025-10-31_18h05.47.194,Delay discounting,,2025.1.1,59.96034223,2025-10-31 18h05.53.326803 +0530
67,75,119,30,29,1,4,t,0.8327569,None,4,1,29,5,104.9044941,,104.8918994,104.9044941,105.8878417,105.8878417,105.904439,106.7217685,t,0.8327569,None,p1,1,2025-10-31_18h05.47.194,Delay discounting,,2025.1.1,59.96034223,2025-10-31 18h05.53.326803 +0530
15,35,13,31,30,2,4,l,7.4277428,None,4,2,30,1,106.7378268,,106.7249642,106.7378268,107.7212411,107.7212411,107.7377144,115.1545864,l,7.4277428,None,p1,1,2025-10-31_18h05.47.194,Delay discounting,,2025.1.1,59.96034223,2025-10-31 18h05.53.326803 +0530
49,60,89,32,31,3,4,t,2.9961615,None,4,3,31,4,115.1705546,,115.1584176,115.1705546,116.1540436,116.1540436,116.1705182,119.154355,t,2.9961615,None,p1,1,2025-10-31_18h05.47.194,Delay discounting,,2025.1.1,59.96034223,2025-10-31 18h05.53.326803 +0530
78,80,162,33,32,4,4,t,0.9339457,None,4,4,32,6,119.1703102,,119.1579126,119.1703102,120.1537488,120.1537488,120.170382,121.1041836,t,0.9339457,None,p1,1,2025-10-31_18h05.47.194,Delay discounting,,2025.1.1,59.96034223,2025-10-31 18h05.53.326803 +0530
27,50,21,34,33,5,4,l,15.3949161,None,4,5,33,2,121.1202262,,121.1080383,121.1202262,122.1035924,122.1035924,122.1201562,137.5031467,l,15.3949161,None,p1,1,2025-10-31_18h05.47.194,Delay discounting,,2025.1.1,59.96034223,2025-10-31 18h05.53.326803 +0530
11,30,7,35,34,6,4,l,14.9466249,None,4,6,34,0,137.5192582,,137.5086779,137.5192582,138.502509,138.502509,138.5191972,153.4521765,l,14.9466249,None,p1,1,2025-10-31_18h05.47.194,Delay discounting,,2025.1.1,59.96034223,2025-10-31 18h05.53.326803 +0530
15,35,13,36,35,0,5,l,8.6032285,None,5,0,35,1,153.4682646,,153.4578335,153.4682646,154.4515831,154.4515831,154.4682131,163.0682015,l,8.6032285,None,p1,1,2025-10-31_18h05.47.194,Delay discounting,,2025.1.1,59.96034223,2025-10-31 18h05.53.326803 +0530
40,55,62,37,36,1,5,t,5.3325441,None,5,1,36,3,163.0842919,,163.0732782,163.0842919,164.0677663,164.0677663,164.0844456,169.4012768,t,5.3325441,None,p1,1,2025-10-31_18h05.47.194,Delay discounting,,2025.1.1,59.96034223,2025-10-31 18h05.53.326803 +0530
67,75,119,38,37,2,5,t,1.1827664,None,5,2,37,5,169.4172281,,169.4055693,169.4172281,170.4007418,170.4007418,170.4172837,171.5845609,t,1.1827664,None,p1,1,2025-10-31_18h05.47.194,Delay discounting,,2025.1.1,59.96034223,2025-10-31 18h05.53.326803 +0530
49,60,89,39,38,3,5,t,1.4131487,None,5,3,38,4,171.6005447,,171.5897176,171.6005447,172.5837824,172.5837824,172.6005618,174.0005231,t,1.4131487,None,p1,1,2025-10-31_18h05.47.194,Delay discounting,,2025.1.1,59.96034223,2025-10-31 18h05.53.326803 +0530
78,80,162,40,39,4,5,t,1.787016,None,5,4,39,6,174.016747,,174.0054252,174.016747,175.0003841,175.0003841,175.0169541,176.8008317,t,1.787016,None,p1,1,2025-10-31_18h05.47.194,Delay discounting,,2025.1.1,59.96034223,2025-10-31 18h05.53.326803 +0530
11,30,7,41,40,5,5,t,11.1721369,None,5,5,40,0,176.8169152,,176.8063455,176.8169152,177.8003246,177.8003246,177.8168674,188.9834032,t,11.1721369,None,p1,1,2025-10-31_18h05.47.194,Delay discounting,,2025.1.1,59.96034223,2025-10-31 18h05.53.326803 +0530
27,50,21,42,41,6,5,t,1.6283636,None,5,6,41,2,188.9994199,,188.9885943,188.9994199,189.9828697,189.9828697,189.9994773,191.6165256,t,1.6283636,None,p1,1,2025-10-31_18h05.47.194,Delay discounting,,2025.1.1,59.96034223,2025-10-31 18h05.53.326803 +0530
40,55,62,43,42,0,6,t,1.9158749,None,6,0,42,3,191.6325667,,191.6217142,191.6325667,192.6160135,192.6160135,192.6326991,194.5329241,t,1.9158749,None,p1,1,2025-10-31_18h05.47.194,Delay discounting,,2025.1.1,59.96034223,2025-10-31 18h05.53.326803 +0530
49,60,89,44,43,1,6,t,1.0624449,None,6,1,43,4,194.5491177,,194.5382269,194.5491177,195.5325407,195.5325407,195.5491319,196.599601,t,1.0624449,None,p1,1,2025-10-31_18h05.47.194,Delay discounting,,2025.1.1,59.96034223,2025-10-31 18h05.53.326803 +0530
78,80,162,45,44,2,6,t,1.7154924,None,6,2,44,6,196.6154815,,196.6035687,196.6154815,197.5990669,197.5990669,197.6156334,199.3158031,t,1.7154924,None,p1,1,2025-10-31_18h05.47.194,Delay discounting,,2025.1.1,59.96034223,2025-10-31 18h05.53.326803 +0530
15,35,13,46,45,3,6,t,3.4354652,None,6,3,45,1,199.3320901,,199.3211766,199.3320901,200.3154111,200.3154111,200.3320741,203.7657223,t,3.4354652,None,p1,1,2025-10-31_18h05.47.194,Delay discounting,,2025.1.1,59.96034223,2025-10-31 18h05.53.326803 +0530
11,30,7,47,46,4,6,t,1.2901531,None,6,4,46,0,203.7818393,,203.7706169,203.7818393,204.7651942,204.7651942,204.7818087,206.0656162,t,1.2901531,None,p1,1,2025-10-31_18h05.47.194,Delay discounting,,2025.1.1,59.96034223,2025-10-31 18h05.53.326803 +0530
27,50,21,48,47,5,6,t,19.4332802,None,6,5,47,2,206.0816394,,206.0712115,206.0816394,207.0651227,207.0651227,207.0817762,226.514043,t,19.4332802,None,p1,1,2025-10-31_18h05.47.194,Delay discounting,,2025.1.1,59.96034223,2025-10-31 18h05.53.326803 +0530
67,75,119,49,48,6,6,t,3.6372524,None,6,6,48,5,226.5303589,,226.5182278,226.5303589,227.5137365,227.5137365,227.5304154,231.1639831,t,3.6372524,None,p1,1,2025-10-31_18h05.47.194,Delay discounting,,2025.1.1,59.96034223,2025-10-31 18h05.53.326803 +0530
11,30,7,50,49,0,7,l,2.2793759,None,7,0,49,0,231.1801722,,231.1697492,231.1801722,232.1635878,232.1635878,232.1802471,234.4470435,l,2.2793759,None,p1,1,2025-10-31_18h05.47.194,Delay discounting,,2025.1.1,59.96034223,2025-10-31 18h05.53.326803 +0530
15,35,13,51,50,1,7,l,4.4445381,None,7,1,50,1,234.463251,,234.451447,234.463251,235.4467613,235.4467613,235.4633109,239.8969603,l,4.4445381,None,p1,1,2025-10-31_18h05.47.194,Delay discounting,,2025.1.1,59.96034223,2025-10-31 18h05.53.326803 +0530
49,60,89,52,51,2,7,t,1.8838994,None,7,2,51,4,239.9129716,,239.9026462,239.9129716,240.8963306,240.8963306,240.9126792,242.7967393,t,1.8838994,None,p1,1,2025-10-31_18h05.47.194,Delay discounting,,2025.1.1,59.96034223,2025-10-31 18h05.53.326803 +0530
78,80,162,53,52,3,7,t,1.1229733,None,7,3,52,6,242.8128562,,242.8022553,242.8128562,243.7961737,243.7961737,243.812832,244.929824,t,1.1229733,None,p1,1,2025-10-31_18h05.47.194,Delay discounting,,2025.1.1,59.96034223,2025-10-31 18h05.53.326803 +0530
67,75,119,54,53,4,7,t,0.8178476,None,7,4,53,5,244.9458545,,244.9351482,244.9458545,245.929329,245.929329,245.9460723,246.7630451,t,0.8178476,None,p1,1,2025-10-31_18h05.47.194,Delay discounting,,2025.1.1,59.96034223,2025-10-31 18h05.53.326803 +0530
40,55,62,55,54,5,7,t,0.9830541,None,7,5,54,3,246.7792263,,246.7666841,246.7792263,247.762451,247.762451,247.7791761,248.7462135,t,0.9830541,None,p1,1,2025-10-31_18h05.47.194,Delay discounting,,2025.1.1,59.96034223,2025-10-31 18h05.53.326803 +0530
27,50,21,56,55,6,7,t,4.2240328,None,7,6,55,2,248.7623874,,248.7509263,248.7623874,249.7458711,249.7458711,249.7624778,253.9793538,t,4.2240328,None,p1,1,2025-10-31_18h05.47.194,Delay discounting,,2025.1.1,59.96034223,2025-10-31 18h05.53.326803 +0530
49,60,89,57,56,0,8,t,4.0088075,None,8,0,56,4,253.995426,,253.9844331,253.995426,254.9788108,254.9788108,254.9955433,258.9955784,t,4.0088075,None,p1,1,2025-10-31_18h05.47.194,Delay discounting,,2025.1.1,59.96034223,2025-10-31 18h05.53.326803 +0530
78,80,162,58,57,1,8,t,0.7759946,None,8,1,57,6,259.011846,,259.0006529,259.011846,259.995279,259.995279,260.0117961,260.7790114,t,0.7759946,None,p1,1,2025-10-31_18h05.47.194,Delay discounting,,2025.1.1,59.96034223,2025-10-31 18h05.53.326803 +0530
27,50,21,59,58,2,8,t,11.9337598,None,8,2,58,2,260.7950598,,260.7840689,260.7950598,261.7784377,261.7784377,261.7950818,273.7282314,t,11.9337598,None,p1,1,2025-10-31_18h05.47.194,Delay discounting,,2025.1.1,59.96034223,2025-10-31 18h05.53.326803 +0530
11,30,7,60,59,3,8,l,6.707945,None,8,3,59,0,273.7442979,,273.734349,273.7442979,274.7276626,274.7276626,274.7443197,281.444329,l,6.707945,None,p1,1,2025-10-31_18h05.47.194,Delay discounting,,2025.1.1,59.96034223,2025-10-31 18h05.53.326803 +0530
15,35,13,61,60,4,8,l,11.9977771,None,8,4,60,1,281.4604884,,281.4497172,281.4604884,282.4437822,282.4437822,282.4604637,294.442912,l,11.9977771,None,p1,1,2025-10-31_18h05.47.194,Delay discounting,,2025.1.1,59.96034223,2025-10-31 18h05.53.326803 +0530
40,55,62,62,61,5,8,t,0.9014216,None,8,5,61,3,294.4593734,,294.4450236,294.4593734,295.4430563,295.4430563,295.4596378,296.3600859,t,0.9014216,None,p1,1,2025-10-31_18h05.47.194,Delay discounting,,2025.1.1,59.96034223,2025-10-31 18h05.53.326803 +0530
67,75,119,63,62,6,8,t,0.5628652,None,8,6,62,5,296.3761529,,296.365428,296.3761529,297.3594956,297.3594956,297.3762202,297.9266286,t,0.5628652,None,p1,1,2025-10-31_18h05.47.194,Delay discounting,,2025.1.1,59.96034223,2025-10-31 18h05.53.326803 +0530
49,60,89,64,63,0,9,t,0.9137459,None,9,0,63,4,297.9426718,,297.9305744,297.9426718,298.9262238,298.9262238,298.9428327,299.8425888,t,0.9137459,None,p1,1,2025-10-31_18h05.47.194,Delay discounting,,2025.1.1,59.96034223,2025-10-31 18h05.53.326803 +0530
67,75,119,65,64,1,9,t,2.2331072,None,9,1,64,5,299.8590127,,299.844852,299.8590127,300.8427624,300.8427624,300.8593312,303.0764569,t,2.2331072,None,p1,1,2025-10-31_18h05.47.194,Delay discounting,,2025.1.1,59.96034223,2025-10-31 18h05.53.326803 +0530
15,35,13,66,65,2,9,l,1.5199121,None,9,2,65,1,303.0924274,,303.0800166,303.0924274,304.075849,304.075849,304.0924702,305.6094724,l,1.5199121,None,p1,1,2025-10-31_18h05.47.194,Delay discounting,,2025.1.1,59.96034223,2025-10-31 18h05.53.326803 +0530
27,50,21,67,66,3,9,t,0.9803408,None,9,3,66,2,305.6255594,,305.614513,305.6255594,306.6089511,306.6089511,306.6256726,307.5927886,t,0.9803408,None,p1,1,2025-10-31_18h05.47.194,Delay discounting,,2025.1.1,59.96034223,2025-10-31 18h05.53.326803 +0530
11,30,7,68,67,4,9,l,1.0002581,None,9,4,67,0,307.6086185,,307.5974722,307.6086185,308.5922738,308.5922738,308.6087056,309.6090548,l,1.0002581,None,p1,1,2025-10-31_18h05.47.194,Delay discounting,,2025.1.1,59.96034223,2025-10-31 18h05.53.326803 +0530
40,55,62,69,68,5,9,t,0.9875246,None,9,5,68,3,309.6251806,,309.6139287,309.6251806,310.6086723,310.6086723,310.6253118,311.6091666,t,0.9875246,None,p1,1,2025-10-31_18h05.47.194,Delay discounting,,2025.1.1,59.96034223,2025-10-31 18h05.53.326803 +0530
78,80,162,70,69,6,9,t,0.9505165,None,9,6,69,6,311.6252296,,311.6142089,311.6252296,312.6085531,312.6085531,312.6253172,313.5756533,t,0.9505165,None,p1,1,2025-10-31_18h05.47.194,Delay discounting,,2025.1.1,59.96034223,2025-10-31 18h05.53.326803 +0530
67,75,119,71,70,0,10,t,0.7370649,None,10,0,70,5,313.5917088,,313.5807134,313.5917088,314.5751724,314.5751724,314.5914245,315.3254865,t,0.7370649,None,p1,1,2025-10-31_18h05.47.194,Delay discounting,,2025.1.1,59.96034223,2025-10-31 18h05.53.326803 +0530
78,80,162,72,71,1,10,t,0.7344812,None,10,1,71,6,315.3415103,,315.330967,315.3415103,316.3250598,316.3250598,316.3417638,317.075368,t,0.7344812,None,p1,1,2025-10-31_18h05.47.194,Delay discounting,,2025.1.1,59.96034223,2025-10-31 18h05.53.326803 +0530
49,60,89,73,72,2,10,t,0.5531573,None,10,2,72,4,317.0913332,,317.0806302,317.0913332,318.0749984,318.0749984,318.0916843,318.6421072,t,0.5531573,None,p1,1,2025-10-31_18h05.47.194,Delay discounting,,2025.1.1,59.96034223,2025-10-31 18h05.53.326803 +0530
40,55,62,74,73,3,10,t,0.8839051,None,10,3,73,3,318.6580546,,318.6477259,318.6580546,319.6416281,319.6416281,319.6581636,320.5420145,t,0.8839051,None,p1,1,2025-10-31_18h05.47.194,Delay discounting,,2025.1.1,59.96034223,2025-10-31 18h05.53.326803 +0530
27,50,21,75,74,4,10,l,9.1618586,None,10,4,74,2,320.5580164,,320.5472885,320.5580164,321.5414713,321.5414713,321.5580316,330.7078798,l,9.1618586,None,p1,1,2025-10-31_18h05.47.194,Delay discounting,,2025.1.1,59.96034223,2025-10-31 18h05.53.326803 +0530
15,35,13,76,75,5,10,t,16.2196119,None,10,5,75,1,330.7239042,,330.7120306,330.7239042,331.7074485,331.7074485,331.7240482,347.9403403,t,16.2196119,None,p1,1,2025-10-31_18h05.47.194,Delay discounting,,2025.1.1,59.96034223,2025-10-31 18h05.53.326803 +0530
11,30,7,77,76,6,10,l,2.2877915,None,10,6,76,0,347.9562238,,347.9453617,347.9562238,348.9395618,348.9395618,348.9563569,351.2399778,l,2.2877915,None,p1,1,2025-10-31_18h05.47.194,Delay discounting,,2025.1.1,59.96034223,2025-10-31 18h05.53.326803 +0530
67,75,119,78,77,0,11,t,0.8552473,None,11,0,77,5,351.2560701,,351.2449075,351.2560701,352.2394739,352.2394739,352.2561619,353.1066356,t,0.8552473,None,p1,1,2025-10-31_18h05.47.194,Delay discounting,,2025.1.1,59.96034223,2025-10-31 18h05.53.326803 +0530
49,60,89,79,78,1,11,t,0.4717934,None,11,1,78,4,353.1225769,,353.1117981,353.1225769,354.1061162,354.1061162,354.1227768,354.5899544,t,0.4717934,None,p1,1,2025-10-31_18h05.47.194,Delay discounting,,2025.1.1,59.96034223,2025-10-31 18h05.53.326803 +0530
40,55,62,80,79,2,11,t,0.5411888,None,11,2,79,3,354.6057135,,354.5950892,354.6057135,355.5893357,355.5893357,355.6059395,356.1397854,t,0.5411888,None,p1,1,2025-10-31_18h05.47.194,Delay discounting,,2025.1.1,59.96034223,2025-10-31 18h05.53.326803 +0530
27,50,21,81,80,3,11,t,12.5649689,None,11,3,80,2,356.1556954,,356.1448508,356.1556954,357.1391698,357.1391698,357.155823,369.7053537,t,12.5649689,None,p1,1,2025-10-31_18h05.47.194,Delay discounting,,2025.1.1,59.96034223,2025-10-31 18h05.53.326803 +0530
15,35,13,82,81,4,11,l,4.186685,None,11,4,81,1,369.7215254,,369.7107367,369.7215254,370.7050809,370.7050809,370.721738,374.9050799,l,4.186685,None,p1,1,2025-10-31_18h05.47.194,Delay discounting,,2025.1.1,59.96034223,2025-10-31 18h05.53.326803 +0530
78,80,162,83,82,5,11,t,0.9253005,None,11,5,82,6,374.9212411,,374.9099657,374.9212411,375.904766,375.904766,375.9214131,376.8386145,t,0.9253005,None,p1,1,2025-10-31_18h05.47.194,Delay discounting,,2025.1.1,59.96034223,2025-10-31 18h05.53.326803 +0530
11,30,7,84,83,6,11,t,3.7340373,None,11,6,83,0,376.8543311,,376.8439626,376.8543311,377.8379171,377.8379171,377.8545133,381.5883325,t,3.7340373,None,p1,1,2025-10-31_18h05.47.194,Delay discounting,,2025.1.1,59.96034223,2025-10-31 18h05.53.326803 +0530
11,30,7,85,84,0,12,l,4.3180876,None,12,0,84,0,381.6043656,,381.5886167,381.6043656,382.5877486,382.5877486,382.6043051,386.9212568,l,4.3180876,None,p1,1,2025-10-31_18h05.47.194,Delay discounting,,2025.1.1,59.96034223,2025-10-31 18h05.53.326803 +0530
27,50,21,86,85,1,12,t,4.2696724,None,12,1,85,2,386.9371635,,386.9261323,386.9371635,387.9207423,387.9207423,387.937206,392.2042708,t,4.2696724,None,p1,1,2025-10-31_18h05.47.194,Delay discounting,,2025.1.1,59.96034223,2025-10-31 18h05.53.326803 +0530
67,75,119,87,86,2,12,t,0.5685548,None,12,2,86,5,392.2202723,,392.2092605,392.2202723,393.2036862,393.2036862,393.2200368,393.7874535,t,0.5685548,None,p1,1,2025-10-31_18h05.47.194,Delay discounting,,2025.1.1,59.96034223,2025-10-31 18h05.53.326803 +0530
15,35,13,88,87,3,12,l,1.8659742,None,12,3,87,1,393.8034817,,393.7920893,393.8034817,394.786993,394.786993,394.8034487,396.653999,l,1.8659742,None,p1,1,2025-10-31_18h05.47.194,Delay discounting,,2025.1.1,59.96034223,2025-10-31 18h05.53.326803 +0530
49,60,89,89,88,4,12,t,0.5469845,None,12,4,88,4,396.6700483,,396.6589113,396.6700483,397.6534323,397.6534323,397.6700935,398.2037421,t,0.5469845,None,p1,1,2025-10-31_18h05.47.194,Delay discounting,,2025.1.1,59.96034223,2025-10-31 18h05.53.326803 +0530
78,80,162,90,89,5,12,t,0.5402279,None,12,5,89,6,398.2197545,,398.2080842,398.2197545,399.2029753,399.2029753,399.2195832,399.7537863,t,0.5402279,None,p1,1,2025-10-31_18h05.47.194,Delay discounting,,2025.1.1,59.96034223,2025-10-31 18h05.53.326803 +0530
40,55,62,91,90,6,12,t,1.6241136,None,12,6,90,3,399.7696274,,399.7586008,399.7696274,400.7531709,400.7531709,400.7698619,402.3869528,t,1.6241136,None,p1,1,2025-10-31_18h05.47.194,Delay discounting,,2025.1.1,59.96034223,2025-10-31 18h05.53.326803 +0530
27,50,21,92,91,0,13,t,7.4798697,None,13,0,91,2,402.4028121,,402.3921676,402.4028121,403.3863589,403.3863589,403.4028319,410.8698013,t,7.4798697,None,p1,1,2025-10-31_18h05.47.194,Delay discounting,,2025.1.1,59.96034223,2025-10-31 18h05.53.326803 +0530
40,55,62,93,92,1,13,t,1.3709348,None,13,1,92,3,410.8857091,,410.8746446,410.8857091,411.8692808,411.8692808,411.8858724,413.2528829,t,1.3709348,None,p1,1,2025-10-31_18h05.47.194,Delay discounting,,2025.1.1,59.96034223,2025-10-31 18h05.53.326803 +0530
78,80,162,94,93,2,13,t,0.584639,None,13,2,93,6,413.2688387,,413.2578869,413.2688387,414.2523702,414.2523702,414.2690597,414.8525868,t,0.584639,None,p1,1,2025-10-31_18h05.47.194,Delay discounting,,2025.1.1,59.96034223,2025-10-31 18h05.53.326803 +0530
11,30,7,95,94,3,13,t,4.6040574,None,13,3,94,0,414.8688602,,414.8579237,414.8688602,415.8522999,415.8522999,415.8689567,420.4685034,t,4.6040574,None,p1,1,2025-10-31_18h05.47.194,Delay discounting,,2025.1.1,59.96034223,2025-10-31 18h05.53.326803 +0530
67,75,119,96,95,4,13,t,2.0781055,None,13,4,95,5,420.4849101,,420.470689,420.4849101,421.4684354,421.4684354,421.4853165,423.5521806,t,2.0781055,None,p1,1,2025-10-31_18h05.47.194,Delay discounting,,2025.1.1,59.96034223,2025-10-31 18h05.53.326803 +0530
15,35,13,97,96,5,13,l,3.8232024,None,13,5,96,1,423.5683372,,423.5564742,423.5683372,424.5516795,424.5516795,424.5683237,428.3853996,l,3.8232024,None,p1,1,2025-10-31_18h05.47.194,Delay discounting,,2025.1.1,59.96034223,2025-10-31 18h05.53.326803 +0530
49,60,89,98,97,6,13,t,0.7024079,None,13,6,97,4,428.4014107,,428.3906853,428.4014107,429.3847248,429.3847248,429.4013914,430.101577,t,0.7024079,None,p1,1,2025-10-31_18h05.47.194,Delay discounting,,2025.1.1,59.96034223,2025-10-31 18h05.53.326803 +0530
11,30,7,99,98,0,14,l,5.4010627,None,14,0,98,0,430.1178715,,430.1070253,430.1178715,431.1013287,431.1013287,431.1180335,436.5179335,l,5.4010627,None,p1,1,2025-10-31_18h05.47.194,Delay discounting,,2025.1.1,59.96034223,2025-10-31 18h05.53.326803 +0530
78,80,162,100,199,3,28,t,1.2898421,None,28,3,199,6,668.4201295,,668.409334,668.4201295,669.4033572,669.4033572,669.4198686,670.7038526,t,1.2898421,None,p1,1,2025-10-31_18h05.47.194,Delay discounting,,2025.1.1,59.96034223,2025-10-31 18h05.53.326803 +0530
40,55,62,101,200,4,28,t,0.9568264,None,28,4,200,3,670.7200731,,670.7092067,670.7200731,671.7033519,671.7033519,671.7199353,672.6704482,t,0.9568264,None,p1,1,2025-10-31_18h05.47.194,Delay discounting,,2025.1.1,59.96034223,2025-10-31 18h05.53.326803 +0530
15,35,13,102,201,5,28,l,0.9732343,None,28,5,201,1,672.6863655,,672.6759144,672.6863655,673.6698989,673.6698989,673.6864864,674.6537693,l,0.9732343,None,p1,1,2025-10-31_18h05.47.194,Delay discounting,,2025.1.1,59.96034223,2025-10-31 18h05.53.326803 +0530
27,50,21,103,202,6,28,t,0.7163369,None,28,6,202,2,674.6694522,,674.6593262,674.6694522,675.6530927,675.6530927,675.6697021,676.3700166,t,0.7163369,None,p1,1,2025-10-31_18h05.47.194,Delay discounting,,2025.1.1,59.96034223,2025-10-31 18h05.53.326803 +0530
49,60,89,104,203,0,29,t,0.5726462,None,29,0,203,4,676.386175,,676.3756912,676.386175,677.3696581,677.3696581,677.3861842,677.9534343,t,0.5726462,None,p1,1,2025-10-31_18h05.47.194,Delay discounting,,2025.1.1,59.96034223,2025-10-31 18h05.53.326803 +0530
40,55,62,105,204,1,29,t,1.3813426,None,29,1,204,3,677.9693854,,677.9593345,677.9693854,678.9528439,678.9528439,678.9694382,680.3362946,t,1.3813426,None,p1,1,2025-10-31_18h05.47.194,Delay discounting,,2025.1.1,59.96034223,2025-10-31 18h05.53.326803 +0530
