reward_today,future_reward,delay,thisN,thisTrialN,thisRepN,key_resp.keys,key_resp.rt,key_resp.duration,trials.thisRepN,trials.thisTrialN,trials.thisN,trials.thisIndex,thisRow.t,notes,trial.started,fixation.started,text.started,key_resp.started,fixation.stopped,trial.stopped,trials.key_resp.keys,trials.key_resp.rt,trials.key_resp.duration,participant,session,date,expName,expVersion,psychopyVersion,frameRate,expStart
15,35,13,0,0,0,t,8.0320371,None,0,0,0,1,0.0571755,,0.0553149,0.0571755,1.0117763,1.0117763,1.0617244,9.0520633,t,8.0320371,None,p3,1,2025-10-31_18h23.06.695,Delay discounting,,2025.1.1,59.97371952,2025-10-31 18h23.13.079611 +0530
49,60,89,1,1,0,t,1.7276765,None,0,1,1,4,9.0608754,,9.0570654,9.0608754,10.0612391,10.0612391,10.0612391,11.7952243,t,1.7276765,None,p3,1,2025-10-31_18h23.06.695,Delay discounting,,2025.1.1,59.97371952,2025-10-31 18h23.13.079611 +0530
78,80,162,2,2,0,t,1.2711106,None,0,2,2,6,11.8108325,,11.8020457,11.8108325,12.7944825,12.7944825,12.8109332,14.0785191,t,1.2711106,None,p3,1,2025-10-31_18h23.06.695,Delay discounting,,2025.1.1,59.97371952,2025-10-31 18h23.13.079611 +0530
11,30,7,3,3,0,l,1.3791184,None,0,3,3,0,14.0939793,,14.0839466,14.0939793,15.0937893,15.0937893,15.0937893,16.4776968,l,1.3791184,None,p3,1,2025-10-31_18h23.06.695,Delay discounting,,2025.1.1,59.97371952,2025-10-31 18h23.13.079611 +0530
27,50,21,4,4,0,l,2.5349548,None,0,4,4,2,16.4937141,,16.480002,16.4937141,17.4771777,17.4771777,17.493902,20.0279071,l,2.5349548,None,p3,1,2025-10-31_18h23.06.695,Delay discounting,,2025.1.1,59.97371952,2025-10-31 18h23.13.079611 +0530
40,55,62,5,5,0,t,2.1984392,None,0,5,5,3,20.0437777,,20.0328702,20.0437777,21.0435438,21.0435438,21.0435438,23.244042,t,2.1984392,None,p3,1,2025-10-31_18h23.06.695,Delay discounting,,2025.1.1,59.97371952,2025-10-31 18h23.13.079611 +0530
67,75,119,6,6,0,t,2.3263482,None,0,6,6,5,23.2603337,,23.2490914,23.2603337,24.2438169,24.2438169,24.2603512,26.5774395,t,2.3263482,None,p3,1,2025-10-31_18h23.06.695,Delay discounting,,2025.1.1,59.97371952,2025-10-31 18h23.13.079611 +0530
27,50,21,7,0,1,l,1.9324327,None,1,0,7,2,26.5932782,,26.5823933,26.5932782,27.5769732,27.5769732,27.5935534,29.5272771,l,1.9324327,None,p3,1,2025-10-31_18h23.06.695,Delay discounting,,2025.1.1,59.97371952,2025-10-31 18h23.13.079611 +0530
49,60,89,8,1,1,t,3.6433811,None,1,1,8,4,29.5431479,,29.5310005,29.5431479,30.5266973,30.5266973,30.5432641,34.1768951,t,3.6433811,None,p3,1,2025-10-31_18h23.06.695,Delay discounting,,2025.1.1,59.97371952,2025-10-31 18h23.13.079611 +0530
11,30,7,9,2,1,l,1.5308636,None,1,2,9,0,34.1928459,,34.1822665,34.1928459,35.1763058,35.1763058,35.1929483,36.7095155,l,1.5308636,None,p3,1,2025-10-31_18h23.06.695,Delay discounting,,2025.1.1,59.97371952,2025-10-31 18h23.13.079611 +0530
78,80,162,10,3,1,t,1.4004799,None,1,3,10,6,36.7260562,,36.7115265,36.7260562,37.7095837,37.7095837,37.7262169,39.1267047,t,1.4004799,None,p3,1,2025-10-31_18h23.06.695,Delay discounting,,2025.1.1,59.97371952,2025-10-31 18h23.13.079611 +0530
67,75,119,11,4,1,l,1.1475979,None,1,4,11,5,39.1426095,,39.1316447,39.1426095,40.1258775,40.1258775,40.1424969,41.2765393,l,1.1475979,None,p3,1,2025-10-31_18h23.06.695,Delay discounting,,2025.1.1,59.97371952,2025-10-31 18h23.13.079611 +0530
40,55,62,12,5,1,t,3.6124738,None,1,5,12,3,41.2926353,,41.2817284,41.2926353,42.2758509,42.2758509,42.292475,45.8927865,t,3.6124738,None,p3,1,2025-10-31_18h23.06.695,Delay discounting,,2025.1.1,59.97371952,2025-10-31 18h23.13.079611 +0530
15,35,13,13,6,1,l,1.1337092,None,1,6,13,1,45.9086297,,45.8978554,45.9086297,46.8922639,46.8922639,46.9087627,48.0428289,l,1.1337092,None,p3,1,2025-10-31_18h23.06.695,Delay discounting,,2025.1.1,59.97371952,2025-10-31 18h23.13.079611 +0530
78,80,162,14,0,2,t,1.0660647,None,2,0,14,6,48.0587203,,48.0480499,48.0587203,49.0421807,49.0421807,49.0587472,50.1094263,t,1.0660647,None,p3,1,2025-10-31_18h23.06.695,Delay discounting,,2025.1.1,59.97371952,2025-10-31 18h23.13.079611 +0530
40,55,62,15,1,2,l,2.5930978,None,2,1,15,3,50.1254038,,50.1151697,50.1254038,51.1252388,51.1252388,51.1252388,53.7258583,l,2.5930978,None,p3,1,2025-10-31_18h23.06.695,Delay discounting,,2025.1.1,59.97371952,2025-10-31 18h23.13.079611 +0530
27,50,21,16,2,2,l,1.8510912,None,2,2,16,2,53.7417787,,53.7308997,53.7417787,54.725121,54.725121,54.7416567,56.5922765,l,1.8510912,None,p3,1,2025-10-31_18h23.06.695,Delay discounting,,2025.1.1,59.97371952,2025-10-31 18h23.13.079611 +0530
15,35,13,17,3,2,l,2.839533,None,2,3,17,1,56.6082748,,56.5977283,56.6082748,57.5916996,57.5916996,57.6083087,60.4419605,l,2.839533,None,p3,1,2025-10-31_18h23.06.695,Delay discounting,,2025.1.1,59.97371952,2025-10-31 18h23.13.079611 +0530
67,75,119,18,4,2,t,1.3485945,None,2,4,18,5,60.4578698,,60.4469708,60.4578698,61.441347,61.441347,61.4580619,62.791682,t,1.3485945,None,p3,1,2025-10-31_18h23.06.695,Delay discounting,,2025.1.1,59.97371952,2025-10-31 18h23.13.079611 +0530
11,30,7,19,5,2,l,1.5752699,None,2,5,19,0,62.8077287,,62.7964653,62.8077287,63.7912773,63.7912773,63.8080129,65.3751132,l,1.5752699,None,p3,1,2025-10-31_18h23.06.695,Delay discounting,,2025.1.1,59.97371952,2025-10-31 18h23.13.079611 +0530
49,60,89,20,6,2,l,0.9843876,None,2,6,20,4,65.3911392,,65.3800269,65.3911392,66.3745308,66.3745308,66.3912298,67.3744007,l,0.9843876,None,p3,1,2025-10-31_18h23.06.695,Delay discounting,,2025.1.1,59.97371952,2025-10-31 18h23.13.079611 +0530
27,50,21,21,0,3,l,1.753269,None,3,0,21,2,67.3907658,,67.3767689,67.3907658,68.3737602,68.3737602,68.3904719,70.141491,l,1.753269,None,p3,1,2025-10-31_18h23.06.695,Delay discounting,,2025.1.1,59.97371952,2025-10-31 18h23.13.079611 +0530
67,75,119,22,1,3,t,1.1838409,None,3,1,22,5,70.1573919,,70.1462972,70.1573919,71.1408545,71.1408545,71.1573593,72.341093,t,1.1838409,None,p3,1,2025-10-31_18h23.06.695,Delay discounting,,2025.1.1,59.97371952,2025-10-31 18h23.13.079611 +0530
11,30,7,23,2,3,l,1.1164619,None,3,2,23,0,72.3570957,,72.3450618,72.3570957,73.3407589,73.3407589,73.3573011,74.4745357,l,1.1164619,None,p3,1,2025-10-31_18h23.06.695,Delay discounting,,2025.1.1,59.97371952,2025-10-31 18h23.13.079611 +0530
15,35,13,24,3,3,l,0.9611152,None,3,3,24,1,74.4904254,,74.4792727,74.4904254,75.4739371,75.4739371,75.4906483,76.4411273,l,0.9611152,None,p3,1,2025-10-31_18h23.06.695,Delay discounting,,2025.1.1,59.97371952,2025-10-31 18h23.13.079611 +0530
40,55,62,25,4,3,t,0.9017598,None,3,4,25,3,76.4569645,,76.4465374,76.4569645,77.4402204,77.4402204,77.4567918,78.3574695,t,0.9017598,None,p3,1,2025-10-31_18h23.06.695,Delay discounting,,2025.1.1,59.97371952,2025-10-31 18h23.13.079611 +0530
78,80,162,26,5,3,t,1.499545,None,3,5,26,6,78.3735701,,78.3623749,78.3735701,79.3568765,79.3568765,79.3737311,80.8574693,t,1.499545,None,p3,1,2025-10-31_18h23.06.695,Delay discounting,,2025.1.1,59.97371952,2025-10-31 18h23.13.079611 +0530
49,60,89,27,6,3,t,1.9671519,None,3,6,27,4,80.8733919,,80.8625824,80.8733919,81.8568868,81.8568868,81.8735742,83.8406255,t,1.9671519,None,p3,1,2025-10-31_18h23.06.695,Delay discounting,,2025.1.1,59.97371952,2025-10-31 18h23.13.079611 +0530
27,50,21,28,0,4,t,3.0091101,None,4,0,28,2,83.8567024,,83.8459768,83.8567024,84.8399632,84.8399632,84.8565862,87.8567744,t,3.0091101,None,p3,1,2025-10-31_18h23.06.695,Delay discounting,,2025.1.1,59.97371952,2025-10-31 18h23.13.079611 +0530
78,80,162,29,1,4,t,0.9707755,None,4,1,29,6,87.8729272,,87.861664,87.8729272,88.8564201,88.8564201,88.8731511,89.8401593,t,0.9707755,None,p3,1,2025-10-31_18h23.06.695,Delay discounting,,2025.1.1,59.97371952,2025-10-31 18h23.13.079611 +0530
67,75,119,30,2,4,t,1.2140287,None,4,2,30,5,89.8561649,,89.8436129,89.8561649,90.8397028,90.8397028,90.8562965,92.0566454,t,1.2140287,None,p3,1,2025-10-31_18h23.06.695,Delay discounting,,2025.1.1,59.97371952,2025-10-31 18h23.13.079611 +0530
15,35,13,31,3,4,l,2.0563667,None,4,3,31,1,92.0727175,,92.0623981,92.0727175,93.0561821,93.0561821,93.0728619,95.1232658,l,2.0563667,None,p3,1,2025-10-31_18h23.06.695,Delay discounting,,2025.1.1,59.97371952,2025-10-31 18h23.13.079611 +0530
49,60,89,32,4,4,t,1.4427408,None,4,4,32,4,95.1392497,,95.1285554,95.1392497,96.122703,96.122703,96.1391959,97.572934,t,1.4427408,None,p3,1,2025-10-31_18h23.06.695,Delay discounting,,2025.1.1,59.97371952,2025-10-31 18h23.13.079611 +0530
40,55,62,33,5,4,l,2.0716492,None,4,5,33,3,97.5888819,,97.5786325,97.5888819,98.5723443,98.5723443,98.5889518,100.6562383,l,2.0716492,None,p3,1,2025-10-31_18h23.06.695,Delay discounting,,2025.1.1,59.97371952,2025-10-31 18h23.13.079611 +0530
11,30,7,34,6,4,l,1.540489,None,4,6,34,0,100.6720863,,100.6607979,100.6720863,101.6555644,101.6555644,101.6723622,103.2054317,l,1.540489,None,p3,1,2025-10-31_18h23.06.695,Delay discounting,,2025.1.1,59.97371952,2025-10-31 18h23.13.079611 +0530
67,75,119,35,0,5,l,1.2439286,None,5,0,35,5,103.2216739,,103.2083982,103.2216739,104.2051175,104.2051175,104.2220795,105.4558524,l,1.2439286,None,p3,1,2025-10-31_18h23.06.695,Delay discounting,,2025.1.1,59.97371952,2025-10-31 18h23.13.079611 +0530
27,50,21,36,1,5,l,1.3121064,None,5,1,36,2,105.4720642,,105.4607475,105.4720642,106.4553202,106.4553202,106.4720612,107.7724431,l,1.3121064,None,p3,1,2025-10-31_18h23.06.695,Delay discounting,,2025.1.1,59.97371952,2025-10-31 18h23.13.079611 +0530
40,55,62,37,2,5,l,1.3584089,None,5,2,37,3,107.7884534,,107.7774488,107.7884534,108.7719333,108.7719333,108.7885957,110.1388639,l,1.3584089,None,p3,1,2025-10-31_18h23.06.695,Delay discounting,,2025.1.1,59.97371952,2025-10-31 18h23.13.079611 +0530
15,35,13,38,3,5,l,1.1430943,None,5,3,38,1,110.1550655,,110.1438346,110.1550655,111.1548677,111.1548677,111.1548677,112.3053878,l,1.1430943,None,p3,1,2025-10-31_18h23.06.695,Delay discounting,,2025.1.1,59.97371952,2025-10-31 18h23.13.079611 +0530
11,30,7,39,4,5,l,1.3410635,None,5,4,39,0,112.3214892,,112.3109202,112.3214892,113.3048814,113.3048814,113.3213885,114.6553562,l,1.3410635,None,p3,1,2025-10-31_18h23.06.695,Delay discounting,,2025.1.1,59.97371952,2025-10-31 18h23.13.079611 +0530
78,80,162,40,5,5,t,1.0379797,None,5,5,40,6,114.6714128,,114.6606375,114.6714128,115.6547533,115.6547533,115.6714982,116.705058,t,1.0379797,None,p3,1,2025-10-31_18h23.06.695,Delay discounting,,2025.1.1,59.97371952,2025-10-31 18h23.13.079611 +0530
49,60,89,41,6,5,t,5.1457703,None,5,6,41,4,116.7212556,,116.7102731,116.7212556,117.7046304,117.7046304,117.7213953,122.8547392,t,5.1457703,None,p3,1,2025-10-31_18h23.06.695,Delay discounting,,2025.1.1,59.97371952,2025-10-31 18h23.13.079611 +0530
15,35,13,42,0,6,l,1.1793989,None,6,0,42,1,122.8706714,,122.859602,122.8706714,123.8542389,123.8542389,123.8710189,125.0381227,l,1.1793989,None,p3,1,2025-10-31_18h23.06.695,Delay discounting,,2025.1.1,59.97371952,2025-10-31 18h23.13.079611 +0530
67,75,119,43,1,6,t,1.2036813,None,6,1,43,5,125.0539913,,125.0430711,125.0539913,126.0375237,126.0375237,126.0541189,127.2545505,t,1.2036813,None,p3,1,2025-10-31_18h23.06.695,Delay discounting,,2025.1.1,59.97371952,2025-10-31 18h23.13.079611 +0530
27,50,21,44,2,6,l,2.0310693,None,6,2,44,2,127.2703803,,127.2589831,127.2703803,128.2538058,128.2538058,128.2707245,130.287441,l,2.0310693,None,p3,1,2025-10-31_18h23.06.695,Delay discounting,,2025.1.1,59.97371952,2025-10-31 18h23.13.079611 +0530
78,80,162,45,3,6,t,0.9093601,None,6,3,45,6,130.3036534,,130.2929198,130.3036534,131.2871037,131.2871037,131.3037719,132.2040248,t,0.9093601,None,p3,1,2025-10-31_18h23.06.695,Delay discounting,,2025.1.1,59.97371952,2025-10-31 18h23.13.079611 +0530
49,60,89,46,4,6,t,5.1006319,None,6,4,46,4,132.2203086,,132.2088688,132.2203086,133.2033855,133.2033855,133.2204227,138.3207336,t,5.1006319,None,p3,1,2025-10-31_18h23.06.695,Delay discounting,,2025.1.1,59.97371952,2025-10-31 18h23.13.079611 +0530
11,30,7,47,5,6,l,5.6479993,None,6,5,47,0,138.3367658,,138.3262826,138.3367658,139.3198976,139.3198976,139.3365827,144.9696012,l,5.6479993,None,p3,1,2025-10-31_18h23.06.695,Delay discounting,,2025.1.1,59.97371952,2025-10-31 18h23.13.079611 +0530
40,55,62,48,6,6,t,8.1694393,None,6,6,48,3,144.9861225,,144.9731519,144.9861225,145.969631,145.969631,145.9861991,154.1529829,t,8.1694393,None,p3,1,2025-10-31_18h23.06.695,Delay discounting,,2025.1.1,59.97371952,2025-10-31 18h23.13.079611 +0530
27,50,21,49,0,7,l,1.3687664,None,7,0,49,2,154.1689942,,154.1568855,154.1689942,155.1523347,155.1523347,155.169049,156.5362142,l,1.3687664,None,p3,1,2025-10-31_18h23.06.695,Delay discounting,,2025.1.1,59.97371952,2025-10-31 18h23.13.079611 +0530
49,60,89,50,1,7,l,3.8213559,None,7,1,50,4,156.5521691,,156.5414147,156.5521691,157.5355908,157.5355908,157.5521814,161.3688616,l,3.8213559,None,p3,1,2025-10-31_18h23.06.695,Delay discounting,,2025.1.1,59.97371952,2025-10-31 18h23.13.079611 +0530
67,75,119,51,2,7,t,3.9847027,None,7,2,51,5,161.3850392,,161.3741726,161.3850392,162.3684936,162.3684936,162.3850917,166.3688783,t,3.9847027,None,p3,1,2025-10-31_18h23.06.695,Delay discounting,,2025.1.1,59.97371952,2025-10-31 18h23.13.079611 +0530
11,30,7,52,3,7,l,3.6158424,None,7,3,52,0,166.3847259,,166.3737759,166.3847259,167.3683347,167.3683347,167.3850074,170.9848147,l,3.6158424,None,p3,1,2025-10-31_18h23.06.695,Delay discounting,,2025.1.1,59.97371952,2025-10-31 18h23.13.079611 +0530
15,35,13,53,4,7,l,5.522762,None,7,4,53,1,171.0010583,,170.9887805,171.0010583,171.9845042,171.9845042,172.0011269,177.5182348,l,5.522762,None,p3,1,2025-10-31_18h23.06.695,Delay discounting,,2025.1.1,59.97371952,2025-10-31 18h23.13.079611 +0530
40,55,62,54,5,7,l,1.0664868,None,7,5,54,3,177.533929,,177.5230638,177.533929,178.5175917,178.5175917,178.5343883,179.5848047,l,1.0664868,None,p3,1,2025-10-31_18h23.06.695,Delay discounting,,2025.1.1,59.97371952,2025-10-31 18h23.13.079611 +0530
78,80,162,55,6,7,t,1.2231183,None,7,6,55,6,179.6008156,,179.5896455,179.6008156,180.5841915,180.5841915,180.6006945,181.8179353,t,1.2231183,None,p3,1,2025-10-31_18h23.06.695,Delay discounting,,2025.1.1,59.97371952,2025-10-31 18h23.13.079611 +0530
40,55,62,56,0,8,t,1.9781158,None,8,0,56,3,181.8339287,,181.8231462,181.8339287,182.8173891,182.8173891,182.8339298,184.8010595,t,1.9781158,None,p3,1,2025-10-31_18h23.06.695,Delay discounting,,2025.1.1,59.97371952,2025-10-31 18h23.13.079611 +0530
27,50,21,57,1,8,l,2.5346102,None,8,1,57,2,184.8170137,,184.8063869,184.8170137,185.8004349,185.8004349,185.8172086,188.350618,l,2.5346102,None,p3,1,2025-10-31_18h23.06.695,Delay discounting,,2025.1.1,59.97371952,2025-10-31 18h23.13.079611 +0530
11,30,7,58,2,8,l,1.1480412,None,8,2,58,0,188.3666631,,188.3563513,188.3666631,189.3501181,189.3501181,189.3669622,190.5005903,l,1.1480412,None,p3,1,2025-10-31_18h23.06.695,Delay discounting,,2025.1.1,59.97371952,2025-10-31 18h23.13.079611 +0530
49,60,89,59,3,8,t,2.8626654,None,8,3,59,4,190.5166475,,190.5054425,190.5166475,191.5001437,191.5001437,191.5168556,194.3671649,t,2.8626654,None,p3,1,2025-10-31_18h23.06.695,Delay discounting,,2025.1.1,59.97371952,2025-10-31 18h23.13.079611 +0530
78,80,162,60,4,8,t,2.004707,None,8,4,60,6,194.3831208,,194.3708278,194.3831208,195.3666306,195.3666306,195.3833025,197.3836558,t,2.004707,None,p3,1,2025-10-31_18h23.06.695,Delay discounting,,2025.1.1,59.97371952,2025-10-31 18h23.13.079611 +0530
15,35,13,61,5,8,l,1.3561633,None,8,5,61,1,197.3994501,,197.3886458,197.3994501,198.3830819,198.3830819,198.3996482,199.7499935,l,1.3561633,None,p3,1,2025-10-31_18h23.06.695,Delay discounting,,2025.1.1,59.97371952,2025-10-31 18h23.13.079611 +0530
67,75,119,62,6,8,t,0.5011451,None,8,6,62,5,199.7661782,,199.7538381,199.7661782,200.7495688,200.7495688,200.7662654,201.266775,t,0.5011451,None,p3,1,2025-10-31_18h23.06.695,Delay discounting,,2025.1.1,59.97371952,2025-10-31 18h23.13.079611 +0530
78,80,162,63,0,9,t,1.1414084,None,9,0,63,6,201.2826922,,201.2721455,201.2826922,202.2661908,202.2661908,202.2828405,203.4161435,t,1.1414084,None,p3,1,2025-10-31_18h23.06.695,Delay discounting,,2025.1.1,59.97371952,2025-10-31 18h23.13.079611 +0530
40,55,62,64,1,9,t,1.7107133,None,9,1,64,3,203.4324104,,203.418641,203.4324104,204.4160616,204.4160616,204.4326544,206.1331111,t,1.7107133,None,p3,1,2025-10-31_18h23.06.695,Delay discounting,,2025.1.1,59.97371952,2025-10-31 18h23.13.079611 +0530
67,75,119,65,2,9,t,0.770706,None,9,2,65,5,206.1490405,,206.1378549,206.1490405,207.1325087,207.1325087,207.1491019,207.9162777,t,0.770706,None,p3,1,2025-10-31_18h23.06.695,Delay discounting,,2025.1.1,59.97371952,2025-10-31 18h23.13.079611 +0530
11,30,7,66,3,9,l,1.0764373,None,9,3,66,0,207.9322011,,207.9206689,207.9322011,208.9157692,208.9157692,208.9324811,209.9994641,l,1.0764373,None,p3,1,2025-10-31_18h23.06.695,Delay discounting,,2025.1.1,59.97371952,2025-10-31 18h23.13.079611 +0530
27,50,21,67,4,9,t,0.8890584,None,9,4,67,2,210.0155764,,210.0045429,210.0155764,210.9988323,210.9988323,211.0155701,211.8993721,t,0.8890584,None,p3,1,2025-10-31_18h23.06.695,Delay discounting,,2025.1.1,59.97371952,2025-10-31 18h23.13.079611 +0530
49,60,89,68,5,9,l,0.3816943,None,9,5,68,4,211.9153099,,211.904925,211.9153099,212.8985967,212.8985967,212.9154926,213.2823629,l,0.3816943,None,p3,1,2025-10-31_18h23.06.695,Delay discounting,,2025.1.1,59.97371952,2025-10-31 18h23.13.079611 +0530
15,35,13,69,6,9,t,0.4846115,None,9,6,69,1,213.2986409,,213.2874282,213.2986409,214.2820994,214.2820994,214.2986584,214.7826621,t,0.4846115,None,p3,1,2025-10-31_18h23.06.695,Delay discounting,,2025.1.1,59.97371952,2025-10-31 18h23.13.079611 +0530
78,80,162,70,0,10,t,1.232884,None,10,0,70,6,214.7986251,,214.7879348,214.7986251,215.782014,215.782014,215.7986453,217.0158202,t,1.232884,None,p3,1,2025-10-31_18h23.06.695,Delay discounting,,2025.1.1,59.97371952,2025-10-31 18h23.13.079611 +0530
11,30,7,71,1,10,l,1.346988,None,10,1,71,0,217.03152,,217.0212871,217.03152,218.015218,218.015218,218.0319035,219.3654221,l,1.346988,None,p3,1,2025-10-31_18h23.06.695,Delay discounting,,2025.1.1,59.97371952,2025-10-31 18h23.13.079611 +0530
15,35,13,72,2,10,l,3.8385146,None,10,2,72,1,219.381635,,219.3704949,219.381635,220.3650326,220.3650326,220.3817404,224.2151582,l,3.8385146,None,p3,1,2025-10-31_18h23.06.695,Delay discounting,,2025.1.1,59.97371952,2025-10-31 18h23.13.079611 +0530
40,55,62,73,3,10,t,0.7459926,None,10,3,73,3,224.2311826,,224.221397,224.2311826,225.2146642,225.2146642,225.2313179,225.9650756,t,0.7459926,None,p3,1,2025-10-31_18h23.06.695,Delay discounting,,2025.1.1,59.97371952,2025-10-31 18h23.13.079611 +0530
49,60,89,74,4,10,l,0.6777481,None,10,4,74,4,225.9811622,,225.9692606,225.9811622,226.9643396,226.9643396,226.981321,227.6482189,l,0.6777481,None,p3,1,2025-10-31_18h23.06.695,Delay discounting,,2025.1.1,59.97371952,2025-10-31 18h23.13.079611 +0530
27,50,21,75,5,10,l,1.1329571,None,10,5,75,2,227.6644062,,227.6539653,227.6644062,228.6477613,228.6477613,228.6646029,229.7816728,l,1.1329571,None,p3,1,2025-10-31_18h23.06.695,Delay discounting,,2025.1.1,59.97371952,2025-10-31 18h23.13.079611 +0530
67,75,119,76,6,10,t,2.723106,None,10,6,76,5,229.7976574,,229.787194,229.7976574,230.7810166,230.7810166,230.7976809,233.5148033,t,2.723106,None,p3,1,2025-10-31_18h23.06.695,Delay discounting,,2025.1.1,59.97371952,2025-10-31 18h23.13.079611 +0530
78,80,162,77,0,11,t,4.5671405,None,11,0,77,6,233.5306552,,233.5188061,233.5306552,234.5141776,234.5141776,234.5308062,239.0977276,t,4.5671405,None,p3,1,2025-10-31_18h23.06.695,Delay discounting,,2025.1.1,59.97371952,2025-10-31 18h23.13.079611 +0530
49,60,89,78,1,11,t,0.5414438,None,11,1,78,4,239.1137871,,239.1030261,239.1137871,240.0968725,240.0968725,240.113634,240.6476368,t,0.5414438,None,p3,1,2025-10-31_18h23.06.695,Delay discounting,,2025.1.1,59.97371952,2025-10-31 18h23.13.079611 +0530
11,30,7,79,2,11,t,0.1721154,None,11,2,79,0,240.6636512,,240.6529567,240.6636512,241.6469601,241.6469601,241.6636713,241.8309031,t,0.1721154,None,p3,1,2025-10-31_18h23.06.695,Delay discounting,,2025.1.1,59.97371952,2025-10-31 18h23.13.079611 +0530
40,55,62,80,3,11,t,2.3675152,None,11,3,80,3,241.846783,,241.8360651,241.846783,242.8303606,242.8303606,242.8468075,245.2137601,t,2.3675152,None,p3,1,2025-10-31_18h23.06.695,Delay discounting,,2025.1.1,59.97371952,2025-10-31 18h23.13.079611 +0530
67,75,119,81,4,11,t,3.8871964,None,11,4,81,5,245.2298082,,245.2190577,245.2298082,246.2134843,246.2134843,246.2301557,250.1137955,t,3.8871964,None,p3,1,2025-10-31_18h23.06.695,Delay discounting,,2025.1.1,59.97371952,2025-10-31 18h23.13.079611 +0530
27,50,21,82,5,11,t,1.3895757,None,11,5,82,2,250.1296408,,250.1188439,250.1296408,251.1132023,251.1132023,251.1298551,252.5135526,t,1.3895757,None,p3,1,2025-10-31_18h23.06.695,Delay discounting,,2025.1.1,59.97371952,2025-10-31 18h23.13.079611 +0530
15,35,13,83,6,11,t,0.6969116,None,11,6,83,1,252.529356,,252.5187462,252.529356,253.5129436,253.5129436,253.5297205,254.2135043,t,0.6969116,None,p3,1,2025-10-31_18h23.06.695,Delay discounting,,2025.1.1,59.97371952,2025-10-31 18h23.13.079611 +0530
49,60,89,84,0,12,l,0.7995765,None,12,0,84,4,254.229479,,254.2179038,254.229479,255.2127401,255.2127401,255.2295972,256.0135497,l,0.7995765,None,p3,1,2025-10-31_18h23.06.695,Delay discounting,,2025.1.1,59.97371952,2025-10-31 18h23.13.079611 +0530
27,50,21,85,1,12,t,0.9066362,None,12,1,85,2,256.0291906,,256.0192202,256.0291906,257.0128294,257.0128294,257.0295286,257.9299236,t,0.9066362,None,p3,1,2025-10-31_18h23.06.695,Delay discounting,,2025.1.1,59.97371952,2025-10-31 18h23.13.079611 +0530
67,75,119,86,2,12,l,1.0320685,None,12,2,86,5,257.9458539,,257.934627,257.9458539,258.9292858,258.9292858,258.9456929,259.9629772,l,1.0320685,None,p3,1,2025-10-31_18h23.06.695,Delay discounting,,2025.1.1,59.97371952,2025-10-31 18h23.13.079611 +0530
11,30,7,87,3,12,l,2.2536307,None,12,3,87,0,259.9791268,,259.9687307,259.9791268,260.962418,260.962418,260.9790733,263.2296285,l,2.2536307,None,p3,1,2025-10-31_18h23.06.695,Delay discounting,,2025.1.1,59.97371952,2025-10-31 18h23.13.079611 +0530
40,55,62,88,4,12,t,0.7183382,None,12,4,88,3,263.2453295,,263.2344789,263.2453295,264.228968,264.228968,264.2454685,264.9628464,t,0.7183382,None,p3,1,2025-10-31_18h23.06.695,Delay discounting,,2025.1.1,59.97371952,2025-10-31 18h23.13.079611 +0530
15,35,13,89,5,12,l,0.4727588,None,12,5,89,1,264.978744,,264.967879,264.978744,265.9622402,265.9622402,265.9789471,266.4457162,l,0.4727588,None,p3,1,2025-10-31_18h23.06.695,Delay discounting,,2025.1.1,59.97371952,2025-10-31 18h23.13.079611 +0530
78,80,162,90,6,12,l,0.4865956,None,12,6,90,6,266.4619376,,266.4501456,266.4619376,267.4454642,267.4454642,267.4622159,267.9459536,l,0.4865956,None,p3,1,2025-10-31_18h23.06.695,Delay discounting,,2025.1.1,59.97371952,2025-10-31 18h23.13.079611 +0530
15,35,13,91,0,13,t,0.5128324,None,13,0,91,1,267.9618771,,267.9517987,267.9618771,268.945248,268.945248,268.9620354,269.4626271,t,0.5128324,None,p3,1,2025-10-31_18h23.06.695,Delay discounting,,2025.1.1,59.97371952,2025-10-31 18h23.13.079611 +0530
40,55,62,92,1,13,t,0.3328004,None,13,1,92,3,269.4784076,,269.4680802,269.4784076,270.4620033,270.4620033,270.4785531,270.7955524,t,0.3328004,None,p3,1,2025-10-31_18h23.06.695,Delay discounting,,2025.1.1,59.97371952,2025-10-31 18h23.13.079611 +0530
11,30,7,93,2,13,t,1.2734575,None,13,2,93,0,270.8114248,,270.8004677,270.8114248,271.7948935,271.7948935,271.8119316,273.0790991,t,1.2734575,None,p3,1,2025-10-31_18h23.06.695,Delay discounting,,2025.1.1,59.97371952,2025-10-31 18h23.13.079611 +0530
27,50,21,94,3,13,l,0.5309699,None,13,3,94,2,273.0949891,,273.0842411,273.0949891,274.078116,274.078116,274.0947234,274.6116539,l,0.5309699,None,p3,1,2025-10-31_18h23.06.695,Delay discounting,,2025.1.1,59.97371952,2025-10-31 18h23.13.079611 +0530
78,80,162,95,4,13,t,0.9551348,None,13,4,95,6,274.627941,,274.6157064,274.627941,275.6117436,275.6117436,275.6282441,276.5786937,t,0.9551348,None,p3,1,2025-10-31_18h23.06.695,Delay discounting,,2025.1.1,59.97371952,2025-10-31 18h23.13.079611 +0530
49,60,89,96,5,13,t,1.407343,None,13,5,96,4,276.5947265,,276.5830763,276.5947265,277.5782212,277.5782212,277.5949518,278.9950489,t,1.407343,None,p3,1,2025-10-31_18h23.06.695,Delay discounting,,2025.1.1,59.97371952,2025-10-31 18h23.13.079611 +0530
67,75,119,97,6,13,t,1.4533269,None,13,6,97,5,279.0112458,,279.0007467,279.0112458,279.9946129,279.9946129,280.0110927,281.4618403,t,1.4533269,None,p3,1,2025-10-31_18h23.06.695,Delay discounting,,2025.1.1,59.97371952,2025-10-31 18h23.13.079611 +0530
27,50,21,98,0,14,t,0.3383139,None,14,0,98,2,281.4776485,,281.4656078,281.4776485,282.4612234,282.4612234,282.4777611,282.8116505,t,0.3383139,None,p3,1,2025-10-31_18h23.06.695,Delay discounting,,2025.1.1,59.97371952,2025-10-31 18h23.13.079611 +0530
78,80,162,99,1,14,t,0.4602894,None,14,1,99,6,282.8277232,,282.8166457,282.8277232,283.8111831,283.8111831,283.8278332,284.2781336,t,0.4602894,None,p3,1,2025-10-31_18h23.06.695,Delay discounting,,2025.1.1,59.97371952,2025-10-31 18h23.13.079611 +0530
67,75,119,100,2,14,t,0.406507,None,14,2,100,5,284.2942418,,284.2833975,284.2942418,285.2775215,285.2775215,285.2943609,285.6948313,t,0.406507,None,p3,1,2025-10-31_18h23.06.695,Delay discounting,,2025.1.1,59.97371952,2025-10-31 18h23.13.079611 +0530
15,35,13,101,3,14,t,0.3456106,None,14,3,101,1,285.7106698,,285.6986034,285.7106698,286.6942809,286.6942809,286.7111363,287.0449402,t,0.3456106,None,p3,1,2025-10-31_18h23.06.695,Delay discounting,,2025.1.1,59.97371952,2025-10-31 18h23.13.079611 +0530
49,60,89,102,4,14,t,0.0929045,None,14,4,102,4,287.0607274,,287.0494891,287.0607274,288.0440577,288.0440577,288.0609481,288.1444704,t,0.0929045,None,p3,1,2025-10-31_18h23.06.695,Delay discounting,,2025.1.1,59.97371952,2025-10-31 18h23.13.079611 +0530
40,55,62,103,5,14,l,0.0988249,None,14,5,103,3,288.1606178,,288.1499413,288.1606178,289.1440583,289.1440583,289.1608175,289.2443805,l,0.0988249,None,p3,1,2025-10-31_18h23.06.695,Delay discounting,,2025.1.1,59.97371952,2025-10-31 18h23.13.079611 +0530
11,30,7,104,6,14,l,0.0247406,None,14,6,104,0,289.2604799,,289.2479184,289.2604799,290.2439321,290.2439321,290.2606161,290.2778534,l,0.0247406,None,p3,1,2025-10-31_18h23.06.695,Delay discounting,,2025.1.1,59.97371952,2025-10-31 18h23.13.079611 +0530
