reward_today,future_reward,delay,thisN,thisTrialN,thisRepN,key_resp.keys,key_resp.rt,key_resp.duration,trials.thisRepN,trials.thisTrialN,trials.thisN,trials.thisIndex,thisRow.t,notes,trial.started,fixation.started,text.started,key_resp.started,fixation.stopped,trial.stopped,trials.key_resp.keys,trials.key_resp.rt,trials.key_resp.duration,participant,session,date,expName,expVersion,psychopyVersion,frameRate,expStart,
11,30,7,0,0,0,l,5.856019400001969,None,0,0,0,0,0.07341350000933744,,0.07020889999694191,0.07341350000933744,1.0033531000080984,1.0033531000080984,1.0862430999986827,6.899588500004029,l,5.856019400001969,None,Participant 3,001,2025-11-06_13h48.40.187,Delay discounting,,2025.1.1,60.142091713113494,2025-11-06 13h48.52.302711 +0530,
67,75,119,1,1,0,t,1.283530399989104,None,0,1,1,5,6.9078777999966405,,6.904827499995008,6.9078777999966405,7.9024092000036035,7.9024092000036035,7.91918739999528,9.202383199997712,t,1.283530399989104,None,Participant 3,001,2025-11-06_13h48.40.187,Delay discounting,,2025.1.1,60.142091713113494,2025-11-06 13h48.52.302711 +0530,
40,55,62,2,2,0,t,1.2515152000123635,None,0,2,2,3,9.218611699994653,,9.206939499999862,9.218611699994653,10.202557200012961,10.202557200012961,10.21889160000137,11.469623800017871,t,1.2515152000123635,None,Participant 3,001,2025-11-06_13h48.40.187,Delay discounting,,2025.1.1,60.142091713113494,2025-11-06 13h48.52.302711 +0530,
27,50,21,3,3,0,t,1.4323337000096217,None,0,3,3,2,11.485673100018175,,11.474906999996165,11.485673100018175,12.468859699991299,12.468859699991299,12.485243500006618,13.902410600014264,t,1.4323337000096217,None,Participant 3,001,2025-11-06_13h48.40.187,Delay discounting,,2025.1.1,60.142091713113494,2025-11-06 13h48.52.302711 +0530,
49,60,89,4,4,0,t,1.3917063999979291,None,0,4,4,4,13.918754999991506,,13.907254699995974,13.918754999991506,14.902302300004521,14.902302300004521,14.918919899995672,16.302645999996457,t,1.3917063999979291,None,Participant 3,001,2025-11-06_13h48.40.187,Delay discounting,,2025.1.1,60.142091713113494,2025-11-06 13h48.52.302711 +0530,
15,35,13,5,5,0,l,1.5098162000067532,None,0,5,5,1,16.318918500008294,,16.307610100018792,16.318918500008294,17.30227119999472,17.30227119999472,17.318748799996683,18.819162600004347,l,1.5098162000067532,None,Participant 3,001,2025-11-06_13h48.40.187,Delay discounting,,2025.1.1,60.142091713113494,2025-11-06 13h48.52.302711 +0530,
78,80,162,6,6,0,t,1.2705134999996517,None,0,6,6,6,18.835433200001717,,18.824166300008073,18.835433200001717,19.818498800013913,19.818498800013913,19.83506280000438,21.102212400001008,t,1.2705134999996517,None,Participant 3,001,2025-11-06_13h48.40.187,Delay discounting,,2025.1.1,60.142091713113494,2025-11-06 13h48.52.302711 +0530,
67,75,119,7,0,1,t,1.2094191999931354,None,1,0,7,5,21.118179300014162,,21.107847800012678,21.118179300014162,22.101831200008746,22.101831200008746,22.11832740000682,23.31871809999575,t,1.2094191999931354,None,Participant 3,001,2025-11-06_13h48.40.187,Delay discounting,,2025.1.1,60.142091713113494,2025-11-06 13h48.52.302711 +0530,
40,55,62,8,1,1,t,2.147774999990361,None,1,1,8,3,23.334623000002466,,23.322119499993278,23.334623000002466,24.31809380001505,24.31809380001505,24.33461730001727,26.46846609999193,t,2.147774999990361,None,Participant 3,001,2025-11-06_13h48.40.187,Delay discounting,,2025.1.1,60.142091713113494,2025-11-06 13h48.52.302711 +0530,
11,30,7,9,2,1,l,1.1340974999766331,None,1,2,9,0,26.484726700000465,,26.473746300005587,26.484726700000465,27.46808950000559,27.46808950000559,27.484557699994184,28.61860990000423,l,1.1340974999766331,None,Participant 3,001,2025-11-06_13h48.40.187,Delay discounting,,2025.1.1,60.142091713113494,2025-11-06 13h48.52.302711 +0530,
78,80,162,10,3,1,t,0.9270500999991782,None,1,3,10,6,28.634375299996464,,28.623096099996474,28.634375299996464,29.6178959000099,29.6178959000099,29.634511800017208,30.551690499996766,t,0.9270500999991782,None,Participant 3,001,2025-11-06_13h48.40.187,Delay discounting,,2025.1.1,60.142091713113494,2025-11-06 13h48.52.302711 +0530,
49,60,89,11,4,1,t,1.3203867000120226,None,1,4,11,4,30.56765730000916,,30.556946900003823,30.56765730000916,31.5511991000094,31.5511991000094,31.56784850000986,32.884353900008136,t,1.3203867000120226,None,Participant 3,001,2025-11-06_13h48.40.187,Delay discounting,,2025.1.1,60.142091713113494,2025-11-06 13h48.52.302711 +0530,
15,35,13,12,5,1,l,0.9559568999975454,None,1,5,12,1,32.90082760000951,,32.88644740000018,32.90082760000951,33.884066300000995,33.884066300000995,33.901050699991174,34.85152789999847,l,0.9559568999975454,None,Participant 3,001,2025-11-06_13h48.40.187,Delay discounting,,2025.1.1,60.142091713113494,2025-11-06 13h48.52.302711 +0530,
27,50,21,13,6,1,t,3.798465900006704,None,1,6,13,2,34.86755190000986,,34.857350300007965,34.86755190000986,35.850808200018946,35.850808200018946,35.867523699998856,39.651176500017755,t,3.798465900006704,None,Participant 3,001,2025-11-06_13h48.40.187,Delay discounting,,2025.1.1,60.142091713113494,2025-11-06 13h48.52.302711 +0530,
78,80,162,14,0,2,t,1.2073612000094727,None,2,0,14,6,39.667003100010334,,39.65608810001868,39.667003100010334,40.650633300014306,40.650633300014306,40.66727060000994,41.86783450000803,t,1.2073612000094727,None,Participant 3,001,2025-11-06_13h48.40.187,Delay discounting,,2025.1.1,60.142091713113494,2025-11-06 13h48.52.302711 +0530,
49,60,89,15,1,2,t,1.9795899000018835,None,2,1,15,4,41.88376029999927,,41.873766900011105,41.88376029999927,42.86701370001538,42.86701370001538,42.88356650000787,44.85086219999357,t,1.9795899000018835,None,Participant 3,001,2025-11-06_13h48.40.187,Delay discounting,,2025.1.1,60.142091713113494,2025-11-06 13h48.52.302711 +0530,
27,50,21,16,2,2,t,1.4423091000062414,None,2,2,16,2,44.86694440001156,,44.855725500005065,44.86694440001156,45.85035280001466,45.85035280001466,45.86708590001217,47.30083180000656,t,1.4423091000062414,None,Participant 3,001,2025-11-06_13h48.40.187,Delay discounting,,2025.1.1,60.142091713113494,2025-11-06 13h48.52.302711 +0530,
15,35,13,17,3,2,l,2.0158493000199087,None,2,3,17,1,47.316829899995355,,47.30629969999427,47.316829899995355,48.30026550000184,48.30026550000184,48.316952799999854,50.31726810001419,l,2.0158493000199087,None,Participant 3,001,2025-11-06_13h48.40.187,Delay discounting,,2025.1.1,60.142091713113494,2025-11-06 13h48.52.302711 +0530,
40,55,62,18,4,2,l,1.772746400005417,None,2,4,18,3,50.33322240001871,,50.32254449999891,50.33322240001871,51.3165382000152,51.3165382000152,51.33322259999113,53.10048560000723,l,1.772746400005417,None,Participant 3,001,2025-11-06_13h48.40.187,Delay discounting,,2025.1.1,60.142091713113494,2025-11-06 13h48.52.302711 +0530,
67,75,119,19,5,2,l,1.9129148999927565,None,2,5,19,5,53.11640600001556,,53.10568110001623,53.11640600001556,54.09978630000842,54.09978630000842,54.11660579999443,56.01689240001724,l,1.9129148999927565,None,Participant 3,001,2025-11-06_13h48.40.187,Delay discounting,,2025.1.1,60.142091713113494,2025-11-06 13h48.52.302711 +0530,
11,30,7,20,6,2,l,6.674912499991478,None,2,6,20,0,56.03266440000152,,56.02194080001209,56.03266440000152,57.01640860000043,57.01640860000043,57.032909300003666,63.69983009999851,l,6.674912499991478,None,Participant 3,001,2025-11-06_13h48.40.187,Delay discounting,,2025.1.1,60.142091713113494,2025-11-06 13h48.52.302711 +0530,
15,35,13,21,0,3,l,1.4102079000149388,None,3,0,21,1,63.715979000000516,,63.70473950001178,63.715979000000516,64.69931560000987,64.69931560000987,64.71593450001092,66.11623129999498,l,1.4102079000149388,None,Participant 3,001,2025-11-06_13h48.40.187,Delay discounting,,2025.1.1,60.142091713113494,2025-11-06 13h48.52.302711 +0530,
40,55,62,22,1,3,t,2.35213990000193,None,3,1,22,3,66.13248359999852,,66.12063750001835,66.13248359999852,67.1155459000147,67.1155459000147,67.13236829999369,69.48264090000885,t,2.35213990000193,None,Participant 3,001,2025-11-06_13h48.40.187,Delay discounting,,2025.1.1,60.142091713113494,2025-11-06 13h48.52.302711 +0530,
49,60,89,23,2,3,t,2.755907999991905,None,3,2,23,4,69.49881429999368,,69.48763019999024,69.49881429999368,70.48198899999261,70.48198899999261,70.49876859999495,73.24918380001327,t,2.755907999991905,None,Participant 3,001,2025-11-06_13h48.40.187,Delay discounting,,2025.1.1,60.142091713113494,2025-11-06 13h48.52.302711 +0530,
11,30,7,24,3,3,l,1.6323876999958884,None,3,3,24,0,73.2653222999943,,73.2542289000121,73.2653222999943,74.24874810001347,74.24874810001347,74.26538029999938,75.88238799999817,l,1.6323876999958884,None,Participant 3,001,2025-11-06_13h48.40.187,Delay discounting,,2025.1.1,60.142091713113494,2025-11-06 13h48.52.302711 +0530,
67,75,119,25,4,3,t,3.5440923999994993,None,3,4,25,5,75.89855390001321,,75.88632950000465,75.89855390001321,76.88182100001723,76.88182100001723,76.89860710001085,80.43202370000654,t,3.5440923999994993,None,Participant 3,001,2025-11-06_13h48.40.187,Delay discounting,,2025.1.1,60.142091713113494,2025-11-06 13h48.52.302711 +0530,
27,50,21,26,5,3,t,1.7521850999910384,None,3,5,26,2,80.44817899999907,,80.4371955000097,80.44817899999907,81.43132030000561,81.43132030000561,81.44816990001709,83.1984625000041,t,1.7521850999910384,None,Participant 3,001,2025-11-06_13h48.40.187,Delay discounting,,2025.1.1,60.142091713113494,2025-11-06 13h48.52.302711 +0530,
78,80,162,27,6,3,t,2.7157059999881312,None,3,6,27,6,83.21476490001078,,83.20367049999186,83.21476490001078,84.19818289999967,84.19818289999967,84.2148867000069,86.91514769999776,t,2.7157059999881312,None,Participant 3,001,2025-11-06_13h48.40.187,Delay discounting,,2025.1.1,60.142091713113494,2025-11-06 13h48.52.302711 +0530,
11,30,7,28,0,4,l,0.9419164000137243,None,4,0,28,0,86.93102930000168,,86.91967450000811,86.93102930000168,87.9144593999954,87.9144593999954,87.9309395000164,88.8650129000016,l,0.9419164000137243,None,Participant 3,001,2025-11-06_13h48.40.187,Delay discounting,,2025.1.1,60.142091713113494,2025-11-06 13h48.52.302711 +0530,
67,75,119,29,1,4,t,1.4440699999977369,None,4,1,29,5,88.8809317999985,,88.87117970001418,88.8809317999985,89.86416440000175,89.86416440000175,89.88082650001161,91.31491509999614,t,1.4440699999977369,None,Participant 3,001,2025-11-06_13h48.40.187,Delay discounting,,2025.1.1,60.142091713113494,2025-11-06 13h48.52.302711 +0530,
40,55,62,30,2,4,l,3.4044800999981817,None,4,2,30,3,91.330744100007,,91.31948840001132,91.330744100007,92.31429650000064,92.31429650000064,92.33094139999594,95.73118780000368,l,3.4044800999981817,None,Participant 3,001,2025-11-06_13h48.40.187,Delay discounting,,2025.1.1,60.142091713113494,2025-11-06 13h48.52.302711 +0530,
49,60,89,31,3,4,t,2.5425475999945775,None,4,3,31,4,95.74729110000771,,95.73660940001719,95.74729110000771,96.73055629999726,96.73055629999726,96.74738980000257,99.28087919999962,t,2.5425475999945775,None,Participant 3,001,2025-11-06_13h48.40.187,Delay discounting,,2025.1.1,60.142091713113494,2025-11-06 13h48.52.302711 +0530,
15,35,13,32,4,4,l,1.7860952999908477,None,4,4,32,1,99.29703260000679,,99.28554000001168,99.29703260000679,100.2804194999917,100.2804194999917,100.2971746000112,102.08087689999957,l,1.7860952999908477,None,Participant 3,001,2025-11-06_13h48.40.187,Delay discounting,,2025.1.1,60.142091713113494,2025-11-06 13h48.52.302711 +0530,
78,80,162,33,5,4,t,2.6155359000258613,None,4,5,33,6,102.09687649999978,,102.0858361000137,102.09687649999978,103.08024969999678,103.08024969999678,103.0969952000014,105.69736950000515,t,2.6155359000258613,None,Participant 3,001,2025-11-06_13h48.40.187,Delay discounting,,2025.1.1,60.142091713113494,2025-11-06 13h48.52.302711 +0530,
27,50,21,34,6,4,l,25.01449450000655,None,4,6,34,2,105.71351709999726,,105.70236620001378,105.71351709999726,106.69678520000889,106.69678520000889,106.71352940000361,131.71239500000956,l,25.01449450000655,None,Participant 3,001,2025-11-06_13h48.40.187,Delay discounting,,2025.1.1,60.142091713113494,2025-11-06 13h48.52.302711 +0530,
49,60,89,35,0,5,t,3.8606546000228263,None,5,0,35,4,131.7283582999953,,131.7178627999965,131.7283582999953,132.71187420000206,132.71187420000206,132.72845049999887,136.57851110000047,t,3.8606546000228263,None,Participant 3,001,2025-11-06_13h48.40.187,Delay discounting,,2025.1.1,60.142091713113494,2025-11-06 13h48.52.302711 +0530,
40,55,62,36,1,5,t,1.1819571000232827,None,5,1,36,3,136.59483839999302,,136.58369759999914,136.59483839999302,137.5782130000007,137.5782130000007,137.59482160001062,138.76177290000487,t,1.1819571000232827,None,Participant 3,001,2025-11-06_13h48.40.187,Delay discounting,,2025.1.1,60.142091713113494,2025-11-06 13h48.52.302711 +0530,
15,35,13,37,2,5,l,2.043123800016474,None,5,2,37,1,138.7779770999914,,138.76669930000207,138.7779770999914,139.76144470000872,139.76144470000872,139.77809050001088,141.81187730000238,l,2.043123800016474,None,Participant 3,001,2025-11-06_13h48.40.187,Delay discounting,,2025.1.1,60.142091713113494,2025-11-06 13h48.52.302711 +0530,
78,80,162,38,3,5,t,1.6065910000179429,None,5,3,38,6,141.8277395000041,,141.81684770001448,141.8277395000041,142.8111082999967,142.8111082999967,142.8278937000141,144.42831149999984,t,1.6065910000179429,None,Participant 3,001,2025-11-06_13h48.40.187,Delay discounting,,2025.1.1,60.142091713113494,2025-11-06 13h48.52.302711 +0530,
27,50,21,39,4,5,t,33.98809759999858,None,5,4,39,2,144.44446600001538,,144.4338362000126,144.44446600001538,145.42762279999442,145.42762279999442,145.4443220999965,179.4262004000193,t,33.98809759999858,None,Participant 3,001,2025-11-06_13h48.40.187,Delay discounting,,2025.1.1,60.142091713113494,2025-11-06 13h48.52.302711 +0530,
67,75,119,40,5,5,t,1.1775716000120156,None,5,5,40,5,179.44222270001774,,179.4308000000019,179.44222270001774,180.4256663999986,180.4256663999986,180.44240420000278,181.609481099993,t,1.1775716000120156,None,Participant 3,001,2025-11-06_13h48.40.187,Delay discounting,,2025.1.1,60.142091713113494,2025-11-06 13h48.52.302711 +0530,
11,30,7,41,6,5,l,1.652128299989272,None,5,6,41,0,181.6254704000021,,181.61445290001575,181.6254704000021,182.60890610000934,182.60890610000934,182.62554810001166,184.27511390001746,l,1.652128299989272,None,Participant 3,001,2025-11-06_13h48.40.187,Delay discounting,,2025.1.1,60.142091713113494,2025-11-06 13h48.52.302711 +0530,
49,60,89,42,0,6,t,2.356483000010485,None,6,0,42,4,184.29165140000987,,184.2772038000112,184.29165140000987,185.27499370000442,185.27499370000442,185.2917403000174,187.64229270000942,t,2.356483000010485,None,Participant 3,001,2025-11-06_13h48.40.187,Delay discounting,,2025.1.1,60.142091713113494,2025-11-06 13h48.52.302711 +0530,
40,55,62,43,1,6,t,1.2623765000025742,None,6,1,43,3,187.65845210000407,,187.64736520001316,187.65845210000407,188.64177419999032,188.64177419999032,188.6584616000182,189.90880870001274,t,1.2623765000025742,None,Participant 3,001,2025-11-06_13h48.40.187,Delay discounting,,2025.1.1,60.142091713113494,2025-11-06 13h48.52.302711 +0530,
27,50,21,44,2,6,l,3.4314463999762665,None,6,2,44,2,189.92489320001914,,189.9132853000192,189.92489320001914,190.9081664000114,190.9081664000114,190.92489729999215,194.3423083999951,l,3.4314463999762665,None,Participant 3,001,2025-11-06_13h48.40.187,Delay discounting,,2025.1.1,60.142091713113494,2025-11-06 13h48.52.302711 +0530,
15,35,13,45,3,6,l,1.2248377999931108,None,6,3,45,1,194.35799869999755,,194.34755760000553,194.35799869999755,195.35817069999757,195.35817069999757,195.35817069999757,196.59177699999418,l,1.2248377999931108,None,Participant 3,001,2025-11-06_13h48.40.187,Delay discounting,,2025.1.1,60.142091713113494,2025-11-06 13h48.52.302711 +0530,
78,80,162,46,4,6,t,0.9182696999923792,None,6,4,46,6,196.60774360000505,,196.5964814000181,196.60774360000505,197.5913528999954,197.5913528999954,197.6080348000105,198.52506509999512,t,0.9182696999923792,None,Participant 3,001,2025-11-06_13h48.40.187,Delay discounting,,2025.1.1,60.142091713113494,2025-11-06 13h48.52.302711 +0530,
11,30,7,47,5,6,l,1.499527699983446,None,6,5,47,0,198.54124270001194,,198.53063910000492,198.54124270001194,199.5243912000151,199.5243912000151,199.5410850000044,201.02491140001803,l,1.499527699983446,None,Participant 3,001,2025-11-06_13h48.40.187,Delay discounting,,2025.1.1,60.142091713113494,2025-11-06 13h48.52.302711 +0530,
67,75,119,48,6,6,t,1.578001799993217,None,6,6,48,5,201.04107010000735,,201.0303200999915,201.04107010000735,202.02410909999162,202.02410909999162,202.0408785000036,203.60822039999766,t,1.578001799993217,None,Participant 3,001,2025-11-06_13h48.40.187,Delay discounting,,2025.1.1,60.142091713113494,2025-11-06 13h48.52.302711 +0530,
78,80,162,49,0,7,t,0.8011598000011873,None,7,0,49,6,203.62410849999287,,203.61309090000577,203.62410849999287,204.60761629999615,204.60761629999615,204.62418830001843,205.42453889999888,t,0.8011598000011873,None,Participant 3,001,2025-11-06_13h48.40.187,Delay discounting,,2025.1.1,60.142091713113494,2025-11-06 13h48.52.302711 +0530,
27,50,21,50,1,7,l,5.43796530002146,None,7,1,50,2,205.4408223000064,,205.42973520001397,205.4408223000064,206.42410309999832,206.42410309999832,206.44073480000952,211.8742057000054,l,5.43796530002146,None,Participant 3,001,2025-11-06_13h48.40.187,Delay discounting,,2025.1.1,60.142091713113494,2025-11-06 13h48.52.302711 +0530,
15,35,13,51,2,7,l,1.0714954000141006,None,7,2,51,1,211.890301300009,,211.87966989999404,211.890301300009,212.87369279999984,212.87369279999984,212.8901390999963,213.95740579999983,l,1.0714954000141006,None,Participant 3,001,2025-11-06_13h48.40.187,Delay discounting,,2025.1.1,60.142091713113494,2025-11-06 13h48.52.302711 +0530,
67,75,119,52,3,7,t,4.445630499976687,None,7,3,52,5,213.97345009999117,,213.9625279000029,213.97345009999117,214.956892599992,214.956892599992,214.97359720000532,219.40721110001323,t,4.445630499976687,None,Participant 3,001,2025-11-06_13h48.40.187,Delay discounting,,2025.1.1,60.142091713113494,2025-11-06 13h48.52.302711 +0530,
40,55,62,53,4,7,t,3.1757006000261754,None,7,4,53,3,219.4231826000032,,219.41177390000666,219.4231826000032,220.40665069999523,220.40665069999523,220.42294570000377,223.59035250000306,t,3.1757006000261754,None,Participant 3,001,2025-11-06_13h48.40.187,Delay discounting,,2025.1.1,60.142091713113494,2025-11-06 13h48.52.302711 +0530,
49,60,89,54,5,7,l,3.7486402000067756,None,7,5,54,4,223.60643139999593,,223.59528080001473,223.60643139999593,224.58981910001603,224.58981910001603,224.60644350000075,228.34003369999118,l,3.7486402000067756,None,Participant 3,001,2025-11-06_13h48.40.187,Delay discounting,,2025.1.1,60.142091713113494,2025-11-06 13h48.52.302711 +0530,
11,30,7,55,6,7,l,2.7349475999944843,None,7,6,55,0,228.3559259000176,,228.34553220000817,228.3559259000176,229.33924200001638,229.33924200001638,229.3560296999931,232.0898254000058,l,2.7349475999944843,None,Participant 3,001,2025-11-06_13h48.40.187,Delay discounting,,2025.1.1,60.142091713113494,2025-11-06 13h48.52.302711 +0530,
11,30,7,56,0,8,l,4.581107699981658,None,8,0,56,0,232.1059888000018,,232.09010259999195,232.1059888000018,233.08922480000183,233.08922480000183,233.10595349999494,237.6728535000002,l,4.581107699981658,None,Participant 3,001,2025-11-06_13h48.40.187,Delay discounting,,2025.1.1,60.142091713113494,2025-11-06 13h48.52.302711 +0530,
78,80,162,57,1,8,t,1.2210140000097454,None,8,1,57,6,237.68877510001766,,237.67794120000326,237.68877510001766,238.672106300015,238.672106300015,238.68890370000736,239.90604319999693,t,1.2210140000097454,None,Participant 3,001,2025-11-06_13h48.40.187,Delay discounting,,2025.1.1,60.142091713113494,2025-11-06 13h48.52.302711 +0530,
27,50,21,58,2,8,t,8.609878000017488,None,8,2,58,2,239.92170380000607,,239.9114019999979,239.92170380000607,240.90547399999923,240.90547399999923,240.92183110001497,249.52206710001337,t,8.609878000017488,None,Participant 3,001,2025-11-06_13h48.40.187,Delay discounting,,2025.1.1,60.142091713113494,2025-11-06 13h48.52.302711 +0530,
15,35,13,59,3,8,l,1.3018822000012733,None,8,3,59,1,249.5381946999987,,249.52746370001114,249.5381946999987,250.521184000012,250.521184000012,250.53796200000215,251.838623299991,l,1.3018822000012733,None,Participant 3,001,2025-11-06_13h48.40.187,Delay discounting,,2025.1.1,60.142091713113494,2025-11-06 13h48.52.302711 +0530,
40,55,62,60,4,8,t,1.244624599989038,None,8,4,60,3,251.8545742999995,,251.8437067999912,251.8545742999995,252.83796160001657,252.83796160001657,252.85462830000324,254.08850310000707,t,1.244624599989038,None,Participant 3,001,2025-11-06_13h48.40.187,Delay discounting,,2025.1.1,60.142091713113494,2025-11-06 13h48.52.302711 +0530,
49,60,89,61,5,8,t,1.807360599981621,None,8,5,61,4,254.1045133000007,,254.09339069999987,254.1045133000007,255.087812200014,255.087812200014,255.10456070001237,256.9049628000066,t,1.807360599981621,None,Participant 3,001,2025-11-06_13h48.40.187,Delay discounting,,2025.1.1,60.142091713113494,2025-11-06 13h48.52.302711 +0530,
67,75,119,62,6,8,t,2.8003860999888275,None,8,6,62,5,256.9210604999971,,256.9102404000005,256.9210604999971,257.90432780000265,257.90432780000265,257.9210333999945,260.72142509999685,t,2.8003860999888275,None,Participant 3,001,2025-11-06_13h48.40.187,Delay discounting,,2025.1.1,60.142091713113494,2025-11-06 13h48.52.302711 +0530,
11,30,7,63,0,9,l,2.3683801000006497,None,9,0,63,0,260.73726540000644,,260.72631729999557,260.73726540000644,261.72081729999627,261.72081729999627,261.73754400000325,264.1047450999904,l,2.3683801000006497,None,Participant 3,001,2025-11-06_13h48.40.187,Delay discounting,,2025.1.1,60.142091713113494,2025-11-06 13h48.52.302711 +0530,
40,55,62,64,1,9,t,2.051633499999298,None,9,1,64,3,264.1205869000114,,264.10973299999023,264.1205869000114,265.1204743999988,265.1204743999988,265.1204743999988,267.18760830000974,t,2.051633499999298,None,Participant 3,001,2025-11-06_13h48.40.187,Delay discounting,,2025.1.1,60.142091713113494,2025-11-06 13h48.52.302711 +0530,
15,35,13,65,2,9,l,1.8844739999913145,None,9,2,65,1,267.2037779999955,,267.1923962000001,267.2037779999955,268.1870734000113,268.1870734000113,268.2037124999915,270.0872192000097,l,1.8844739999913145,None,Participant 3,001,2025-11-06_13h48.40.187,Delay discounting,,2025.1.1,60.142091713113494,2025-11-06 13h48.52.302711 +0530,
49,60,89,66,3,9,t,5.392423999990569,None,9,3,66,4,270.1036589000141,,270.09210880001774,270.1036589000141,271.08697930001654,271.08697930001654,271.10363220001454,276.48716009999043,t,5.392423999990569,None,Participant 3,001,2025-11-06_13h48.40.187,Delay discounting,,2025.1.1,60.142091713113494,2025-11-06 13h48.52.302711 +0530,
78,80,162,67,4,9,t,1.245676699996693,None,9,4,67,6,276.5031067999953,,276.4924056000018,276.5031067999953,277.48659660000703,277.48659660000703,277.50327539999853,278.7370547000028,t,1.245676699996693,None,Participant 3,001,2025-11-06_13h48.40.187,Delay discounting,,2025.1.1,60.142091713113494,2025-11-06 13h48.52.302711 +0530,
67,75,119,68,5,9,t,5.628518999990774,None,9,5,68,5,278.75303500000155,,278.74217630000203,278.75303500000155,279.7361998000124,279.7361998000124,279.7531728000031,285.36989880001056,t,5.628518999990774,None,Participant 3,001,2025-11-06_13h48.40.187,Delay discounting,,2025.1.1,60.142091713113494,2025-11-06 13h48.52.302711 +0530,
27,50,21,69,6,9,l,2.428919099998893,None,9,6,69,2,285.3860759999952,,285.3751190000039,285.3860759999952,286.3694070999918,286.3694070999918,286.38588370001526,288.8030190000136,l,2.428919099998893,None,Participant 3,001,2025-11-06_13h48.40.187,Delay discounting,,2025.1.1,60.142091713113494,2025-11-06 13h48.52.302711 +0530,
78,80,162,70,0,10,t,1.360504199983552,None,10,0,70,6,288.8189851999923,,288.80850720001035,288.8189851999923,289.80255419999594,289.80255419999594,289.81914320000215,291.16953129999456,t,1.360504199983552,None,Participant 3,001,2025-11-06_13h48.40.187,Delay discounting,,2025.1.1,60.142091713113494,2025-11-06 13h48.52.302711 +0530,
67,75,119,71,1,10,t,1.7759803000080865,None,10,1,71,5,291.1856400000106,,291.1738361000025,291.1856400000106,292.16902600001777,292.16902600001777,292.18571779999183,293.9526872000133,t,1.7759803000080865,None,Participant 3,001,2025-11-06_13h48.40.187,Delay discounting,,2025.1.1,60.142091713113494,2025-11-06 13h48.52.302711 +0530,
49,60,89,72,2,10,t,1.9722482000070158,None,10,2,72,4,293.9688065999944,,293.95749319999595,293.9688065999944,294.95197840000037,294.95197840000037,294.9687854000076,296.93593659999897,t,1.9722482000070158,None,Participant 3,001,2025-11-06_13h48.40.187,Delay discounting,,2025.1.1,60.142091713113494,2025-11-06 13h48.52.302711 +0530,
40,55,62,73,3,10,l,2.8576033000135794,None,10,3,73,3,296.9520148000156,,296.94075000000885,296.9520148000156,297.93538710000576,297.93538710000576,297.95187940000324,300.80240590000176,l,2.8576033000135794,None,Participant 3,001,2025-11-06_13h48.40.187,Delay discounting,,2025.1.1,60.142091713113494,2025-11-06 13h48.52.302711 +0530,
27,50,21,74,4,10,l,2.825616499991156,None,10,4,74,2,300.8182730000117,,300.80759700000635,300.8182730000117,301.8017448000028,301.8017448000028,301.81829510000534,304.635451500013,l,2.825616499991156,None,Participant 3,001,2025-11-06_13h48.40.187,Delay discounting,,2025.1.1,60.142091713113494,2025-11-06 13h48.52.302711 +0530,
11,30,7,75,5,10,l,1.6605283000099007,None,10,5,75,0,304.6515745999932,,304.64066679999814,304.6515745999932,305.63489869999466,305.63489869999466,305.65145979999215,307.3018901000032,l,1.6605283000099007,None,Participant 3,001,2025-11-06_13h48.40.187,Delay discounting,,2025.1.1,60.142091713113494,2025-11-06 13h48.52.302711 +0530,
15,35,13,76,6,10,l,1.266661000001477,None,10,6,76,1,307.31778509999276,,307.3072298000043,307.31778509999276,308.3013404000085,308.3013404000085,308.31801489999634,309.5851564000186,l,1.266661000001477,None,Participant 3,001,2025-11-06_13h48.40.187,Delay discounting,,2025.1.1,60.142091713113494,2025-11-06 13h48.52.302711 +0530,
11,30,7,77,0,11,l,1.6473621999903116,None,11,0,77,0,309.60136570001487,,309.59021049999865,309.60136570001487,310.5844992999919,310.5844992999919,310.6013734000153,312.2348241000145,l,1.6473621999903116,None,Participant 3,001,2025-11-06_13h48.40.187,Delay discounting,,2025.1.1,60.142091713113494,2025-11-06 13h48.52.302711 +0530,
67,75,119,78,1,11,t,2.8418446000141557,None,11,1,78,5,312.2509849999915,,312.2395164000045,312.2509849999915,313.23436190001667,313.23436190001667,313.25115689999075,316.0847854000167,t,2.8418446000141557,None,Participant 3,001,2025-11-06_13h48.40.187,Delay discounting,,2025.1.1,60.142091713113494,2025-11-06 13h48.52.302711 +0530,
49,60,89,79,2,11,l,3.928553900012048,None,11,2,79,4,316.10079810000025,,316.0890194000094,316.10079810000025,317.08399690000806,317.08399690000806,317.10080119999475,321.0177527999913,l,3.928553900012048,None,Participant 3,001,2025-11-06_13h48.40.187,Delay discounting,,2025.1.1,60.142091713113494,2025-11-06 13h48.52.302711 +0530,
78,80,162,80,3,11,t,4.571898900001543,None,11,3,80,6,321.0339299000043,,321.02337060001446,321.0339299000043,322.0170622000005,322.0170622000005,322.03388400000404,326.6008509999956,t,4.571898900001543,None,Participant 3,001,2025-11-06_13h48.40.187,Delay discounting,,2025.1.1,60.142091713113494,2025-11-06 13h48.52.302711 +0530,
40,55,62,81,4,11,l,1.587585700006457,None,11,4,81,3,326.61690510000335,,326.6058635000081,326.61690510000335,327.60032130000764,327.60032130000764,327.6167018999986,329.20057670000824,l,1.587585700006457,None,Participant 3,001,2025-11-06_13h48.40.187,Delay discounting,,2025.1.1,60.142091713113494,2025-11-06 13h48.52.302711 +0530,
15,35,13,82,5,11,l,1.0446066999866161,None,11,5,82,1,329.216757599992,,329.20569709999836,329.216757599992,330.19995189999463,330.19995189999463,330.2165896999941,331.2505480000109,l,1.0446066999866161,None,Participant 3,001,2025-11-06_13h48.40.187,Delay discounting,,2025.1.1,60.142091713113494,2025-11-06 13h48.52.302711 +0530,
27,50,21,83,6,11,l,3.7909220999863464,None,11,6,83,2,331.2665191999986,,331.25549780001165,331.2665191999986,332.24986400001217,332.24986400001217,332.2665949999937,336.0502908999915,l,3.7909220999863464,None,Participant 3,001,2025-11-06_13h48.40.187,Delay discounting,,2025.1.1,60.142091713113494,2025-11-06 13h48.52.302711 +0530,
40,55,62,84,0,12,l,3.662672099977499,None,12,0,84,3,336.0661160000018,,336.05577939999057,336.0661160000018,337.0494444000069,337.0494444000069,337.06632099999115,340.7164474000165,l,3.662672099977499,None,Participant 3,001,2025-11-06_13h48.40.187,Delay discounting,,2025.1.1,60.142091713113494,2025-11-06 13h48.52.302711 +0530,
11,30,7,85,1,12,l,4.913845700008096,None,12,1,85,0,340.7325964999909,,340.72148559999187,340.7325964999909,341.7159694000147,341.7159694000147,341.73273889999837,346.6327312999929,l,4.913845700008096,None,Participant 3,001,2025-11-06_13h48.40.187,Delay discounting,,2025.1.1,60.142091713113494,2025-11-06 13h48.52.302711 +0530,
49,60,89,86,2,12,t,2.4867107999743894,None,12,2,86,4,346.64894240000285,,346.6383854000014,346.64894240000285,347.63240249999217,347.63240249999217,347.6490427000099,350.132773099991,t,2.4867107999743894,None,Participant 3,001,2025-11-06_13h48.40.187,Delay discounting,,2025.1.1,60.142091713113494,2025-11-06 13h48.52.302711 +0530,
78,80,162,87,3,12,t,2.3647327999933623,None,12,3,87,6,350.1486461000168,,350.137770500005,350.1486461000168,351.1487161999976,351.1487161999976,351.1487161999976,353.5160614000051,t,2.3647327999933623,None,Participant 3,001,2025-11-06_13h48.40.187,Delay discounting,,2025.1.1,60.142091713113494,2025-11-06 13h48.52.302711 +0530,
67,75,119,88,4,12,t,2.4426475999935064,None,12,4,88,5,353.5318145999918,,353.52150080000865,353.5318145999918,354.51526240000385,354.51526240000385,354.5319761999999,356.96565470000496,t,2.4426475999935064,None,Participant 3,001,2025-11-06_13h48.40.187,Delay discounting,,2025.1.1,60.142091713113494,2025-11-06 13h48.52.302711 +0530,
15,35,13,89,5,12,l,6.451301199995214,None,12,5,89,1,356.9818338000041,,356.9709531000117,356.9818338000041,357.9650561000162,357.9650561000162,357.9817921000067,364.43189269999857,l,6.451301199995214,None,Participant 3,001,2025-11-06_13h48.40.187,Delay discounting,,2025.1.1,60.142091713113494,2025-11-06 13h48.52.302711 +0530,
27,50,21,90,6,12,t,2.7864400999969803,None,12,6,90,2,364.448000400007,,364.43723110001883,364.448000400007,365.431350400002,365.431350400002,365.4480509000132,368.23149010000634,t,2.7864400999969803,None,Participant 3,001,2025-11-06_13h48.40.187,Delay discounting,,2025.1.1,60.142091713113494,2025-11-06 13h48.52.302711 +0530,
78,80,162,91,0,13,t,5.248385200015036,None,13,0,91,6,368.2478225000086,,368.2367207999923,368.2478225000086,369.2311427000095,369.2311427000095,369.2478317999921,374.48133720000624,t,5.248385200015036,None,Participant 3,001,2025-11-06_13h48.40.187,Delay discounting,,2025.1.1,60.142091713113494,2025-11-06 13h48.52.302711 +0530,
49,60,89,92,1,13,t,4.380872800014913,None,13,1,92,4,374.4972756000061,,374.48688109999057,374.4972756000061,375.4806943000003,375.4806943000003,375.49729850000585,379.86420090001775,t,4.380872800014913,None,Participant 3,001,2025-11-06_13h48.40.187,Delay discounting,,2025.1.1,60.142091713113494,2025-11-06 13h48.52.302711 +0530,
67,75,119,93,2,13,t,6.287659599998733,None,13,2,93,5,379.88012760001584,,379.86948150000535,379.88012760001584,380.8636284999957,380.8636284999957,380.880413100007,387.16377179999836,t,6.287659599998733,None,Participant 3,001,2025-11-06_13h48.40.187,Delay discounting,,2025.1.1,60.142091713113494,2025-11-06 13h48.52.302711 +0530,
27,50,21,94,3,13,l,1.165288700023666,None,13,3,94,2,387.1799309999915,,387.1688114000135,387.1799309999915,388.1632891999907,388.1632891999907,388.1799863000051,389.3302809000015,l,1.165288700023666,None,Participant 3,001,2025-11-06_13h48.40.187,Delay discounting,,2025.1.1,60.142091713113494,2025-11-06 13h48.52.302711 +0530,
15,35,13,95,4,13,l,7.635194699978456,None,13,4,95,1,389.34626700001536,,389.33509209999465,389.34626700001536,390.32975800000713,390.32975800000713,390.34640390001005,397.9798909999954,l,7.635194699978456,None,Participant 3,001,2025-11-06_13h48.40.187,Delay discounting,,2025.1.1,60.142091713113494,2025-11-06 13h48.52.302711 +0530,
11,30,7,96,5,13,l,1.4486764000030234,None,13,5,96,0,397.995852299995,,397.9853198000055,397.995852299995,398.97933669999475,398.97933669999475,398.9958020999911,400.4295212000143,l,1.4486764000030234,None,Participant 3,001,2025-11-06_13h48.40.187,Delay discounting,,2025.1.1,60.142091713113494,2025-11-06 13h48.52.302711 +0530,
40,55,62,97,6,13,t,1.7673948000010569,None,13,6,97,3,400.44579540000996,,400.4342730999924,400.44579540000996,401.4291119000118,401.4291119000118,401.4457973999961,403.2127424000064,t,1.7673948000010569,None,Participant 3,001,2025-11-06_13h48.40.187,Delay discounting,,2025.1.1,60.142091713113494,2025-11-06 13h48.52.302711 +0530,
78,80,162,98,0,14,t,1.067930899997009,None,14,0,98,6,403.22907590001705,,403.21792190000997,403.22907590001705,404.21233890001895,404.21233890001895,404.22903479999513,405.29579289999674,t,1.067930899997009,None,Participant 3,001,2025-11-06_13h48.40.187,Delay discounting,,2025.1.1,60.142091713113494,2025-11-06 13h48.52.302711 +0530,
11,30,7,99,1,14,l,4.7211379000218585,None,14,1,99,0,405.3118977000122,,405.30088719999185,405.3118977000122,406.29557119999663,406.29557119999663,406.312185399991,411.02901240001665,l,4.7211379000218585,None,Participant 3,001,2025-11-06_13h48.40.187,Delay discounting,,2025.1.1,60.142091713113494,2025-11-06 13h48.52.302711 +0530,
49,60,89,100,2,14,t,1.6469673999818042,None,14,2,100,4,411.0450935999979,,411.03370800000266,411.0450935999979,412.02856639999663,412.02856639999663,412.04522010000073,413.67867860000115,t,1.6469673999818042,None,Participant 3,001,2025-11-06_13h48.40.187,Delay discounting,,2025.1.1,60.142091713113494,2025-11-06 13h48.52.302711 +0530,
27,50,21,101,3,14,l,2.1917121000005864,None,14,3,101,2,413.69490380000207,,413.68303300000844,413.69490380000207,414.67839740001364,414.67839740001364,414.69506890000775,416.8787374999956,l,2.1917121000005864,None,Participant 3,001,2025-11-06_13h48.40.187,Delay discounting,,2025.1.1,60.142091713113494,2025-11-06 13h48.52.302711 +0530,
40,55,62,102,4,14,l,4.128549200017005,None,14,4,102,3,416.89484290001565,,416.88381160001154,416.89484290001565,417.8782136999944,417.8782136999944,417.8949127999949,422.0117267000023,l,4.128549200017005,None,Participant 3,001,2025-11-06_13h48.40.187,Delay discounting,,2025.1.1,60.142091713113494,2025-11-06 13h48.52.302711 +0530,
67,75,119,103,5,14,t,1.7293081999814603,None,14,5,103,5,422.02765720000025,,422.0164114999934,422.02765720000025,423.01111350001884,423.01111350001884,423.02782170000137,424.74514569999883,t,1.7293081999814603,None,Participant 3,001,2025-11-06_13h48.40.187,Delay discounting,,2025.1.1,60.142091713113494,2025-11-06 13h48.52.302711 +0530,
15,35,13,104,6,14,l,3.4411838999949396,None,14,6,104,1,424.76103839999996,,424.75026590001653,424.76103839999996,425.7444262999925,425.7444262999925,425.7610562000191,429.19471879999037,l,3.4411838999949396,None,Participant 3,001,2025-11-06_13h48.40.187,Delay discounting,,2025.1.1,60.142091713113494,2025-11-06 13h48.52.302711 +0530,
